Species,Subj_idx,Session,Block,Trial,Stim,Procedure,Duration_set,Standard,Comparison,Order,Response,RT
Human,1,1,1,1,Visual,OTHER,0.3;0.6;1.2;2.4,2.4,3.832,SC,S,0.844726774
Human,1,1,1,2,Visual,OTHER,0.3;0.6;1.2;2.4,2.4,3.95175,SC,S,1.053178372
Human,1,1,1,3,Visual,OTHER,0.3;0.6;1.2;2.4,1.2,0.702941176,SC,L,2.823458322
Human,1,1,1,4,Visual,OTHER,0.3;0.6;1.2;2.4,1.2,0.682857143,SC,L,1.536810397
Human,1,1,1,5,Visual,OTHER,0.3;0.6;1.2;2.4,2.4,1.330555556,SC,L,1.724587293
Human,1,1,1,6,Visual,OTHER,0.3;0.6;1.2;2.4,1.2,2.21075,SC,S,1.091092054
Human,1,1,1,7,Visual,OTHER,0.3;0.6;1.2;2.4,0.3,0.155263158,SC,L,1.227687804
Human,1,1,1,8,Visual,OTHER,0.3;0.6;1.2;2.4,0.3,0.151282051,SC,L,1.471755961
Human,1,1,1,9,Visual,OTHER,0.3;0.6;1.2;2.4,1.2,0.5975,SC,L,1.622092183
Human,1,1,1,10,Visual,OTHER,0.3;0.6;1.2;2.4,0.3,0.60475,SC,S,1.111515008
Human,1,1,1,11,Visual,OTHER,0.3;0.6;1.2;2.4,0.6,1.2495,SC,S,1.49062134
Human,1,1,1,12,Visual,OTHER,0.3;0.6;1.2;2.4,0.6,0.276744186,SC,L,1.096043091
Human,1,1,1,13,Visual,OTHER,0.3;0.6;1.2;2.4,0.6,0.270454545,SC,S,1.006413375
Human,1,1,1,14,Visual,OTHER,0.3;0.6;1.2;2.4,1.2,2.629,SC,S,0.569159067
Human,1,1,1,15,Visual,OTHER,0.3;0.6;1.2;2.4,0.3,0.66375,SC,S,1.283644609
Human,1,1,1,16,Visual,OTHER,0.3;0.6;1.2;2.4,2.4,5.5085,SC,L,2.962445976
Human,1,1,1,17,Visual,OTHER,0.3;0.6;1.2;2.4,1.2,2.7485,SC,L,1.241581317
Human,1,1,1,18,Visual,OTHER,0.3;0.6;1.2;2.4,1.2,2.7485,SC,L,1.164866195
Human,1,1,1,19,Visual,OTHER,0.3;0.6;1.2;2.4,2.4,5.38875,SC,L,0.809521342
Human,1,1,1,20,Visual,OTHER,0.3;0.6;1.2;2.4,2.4,5.38875,SC,L,0.546395523
Human,1,1,1,21,Visual,OTHER,0.3;0.6;1.2;2.4,2.4,1.064444444,SC,S,1.21817633
Human,1,1,1,22,Visual,OTHER,0.3;0.6;1.2;2.4,0.6,0.270454545,SC,S,1.876168971
Human,1,1,1,23,Visual,OTHER,0.3;0.6;1.2;2.4,0.3,0.649,SC,L,1.041169948
Human,1,1,1,24,Visual,OTHER,0.3;0.6;1.2;2.4,2.4,5.269,SC,L,0.599700526
Human,1,1,1,25,Visual,OTHER,0.3;0.6;1.2;2.4,0.6,1.27925,SC,L,0.500884133
Human,1,1,1,26,Visual,OTHER,0.3;0.6;1.2;2.4,0.3,0.63425,SC,S,1.345066815
Human,1,1,1,27,Visual,OTHER,0.3;0.6;1.2;2.4,2.4,1.088636364,SC,S,1.290692337
Human,1,1,1,28,Visual,OTHER,0.3;0.6;1.2;2.4,2.4,1.088636364,SC,S,1.371660002
Human,1,1,1,29,Visual,OTHER,0.3;0.6;1.2;2.4,0.6,0.270454545,SC,L,1.01905962
Human,1,1,1,30,Visual,OTHER,0.3;0.6;1.2;2.4,0.3,0.66375,SC,S,0.815190494
Human,1,1,1,31,Visual,OTHER,0.3;0.6;1.2;2.4,0.6,1.3685,SC,L,0.771360742
Human,1,1,1,32,Visual,OTHER,0.3;0.6;1.2;2.4,2.4,1.041304348,SC,S,1.124748967
Human,1,1,1,33,Visual,OTHER,0.3;0.6;1.2;2.4,2.4,1.041304348,SC,S,1.379040676
Human,1,1,1,34,Visual,OTHER,0.3;0.6;1.2;2.4,2.4,1.064444444,SC,S,0.832217571
Human,1,1,1,35,Visual,OTHER,0.3;0.6;1.2;2.4,1.2,2.68875,SC,L,0.472654586
Human,1,1,1,36,Visual,OTHER,0.3;0.6;1.2;2.4,1.2,2.68875,SC,L,0.448636228
Human,1,1,1,37,Visual,OTHER,0.3;0.6;1.2;2.4,1.2,0.543181818,SC,S,0.597100945
Human,1,1,1,38,Visual,OTHER,0.3;0.6;1.2;2.4,1.2,0.543181818,SC,S,0.670168744
Human,1,1,1,39,Visual,OTHER,0.3;0.6;1.2;2.4,0.6,1.309,SC,L,0.945381469
Human,1,1,1,40,Visual,OTHER,0.3;0.6;1.2;2.4,0.3,0.137209302,SC,S,0.47578332
Human,1,1,1,41,Visual,OTHER,0.3;0.6;1.2;2.4,0.6,1.27925,SC,L,0.2603824
Human,1,1,1,42,Visual,OTHER,0.3;0.6;1.2;2.4,2.4,5.14925,SC,L,0.521606226
Human,1,1,1,43,Visual,OTHER,0.3;0.6;1.2;2.4,1.2,0.569047619,SC,S,0.904625815
Human,1,1,1,44,Visual,OTHER,0.3;0.6;1.2;2.4,1.2,0.569047619,SC,S,0.459178539
Human,1,1,1,45,Visual,OTHER,0.3;0.6;1.2;2.4,0.3,0.6195,SC,S,0.577843456
Human,1,1,1,46,Visual,OTHER,0.3;0.6;1.2;2.4,0.6,0.276744186,SC,S,0.460772337
Human,1,1,1,47,Visual,OTHER,0.3;0.6;1.2;2.4,0.3,0.63425,SC,L,0.707392987
Human,1,1,1,48,Visual,OTHER,0.3;0.6;1.2;2.4,2.4,1.113953488,SC,S,0.723820277
Human,1,1,1,49,Visual,OTHER,0.3;0.6;1.2;2.4,2.4,1.14047619,SC,S,1.284466864
Human,1,1,1,50,Visual,OTHER,0.3;0.6;1.2;2.4,0.6,1.2495,SC,S,0.935371632
Human,1,1,1,51,Visual,OTHER,0.3;0.6;1.2;2.4,2.4,5.14925,SC,L,0.495020887
Human,1,1,1,52,Visual,OTHER,0.3;0.6;1.2;2.4,2.4,1.113953488,SC,S,0.878275321
Human,1,1,1,53,Visual,OTHER,0.3;0.6;1.2;2.4,0.3,0.63425,SC,S,0.907398058
Human,1,1,1,54,Visual,OTHER,0.3;0.6;1.2;2.4,0.6,0.270454545,SC,S,0.608578103
Human,1,1,1,55,Visual,OTHER,0.3;0.6;1.2;2.4,1.2,0.543181818,SC,S,0.478642196
Human,1,1,1,56,Visual,OTHER,0.3;0.6;1.2;2.4,0.3,0.649,SC,L,0.650696333
Human,1,1,1,57,Visual,OTHER,0.3;0.6;1.2;2.4,0.6,1.27925,SC,L,0.435288772
Human,1,1,1,58,Visual,OTHER,0.3;0.6;1.2;2.4,1.2,2.56925,SC,L,0.276604428
Human,1,1,1,59,Visual,OTHER,0.3;0.6;1.2;2.4,0.6,0.276744186,SC,S,0.429932946
Human,1,1,1,60,Visual,OTHER,0.3;0.6;1.2;2.4,0.6,1.2495,SC,L,0.462677349
Human,1,1,1,61,Visual,OTHER,0.3;0.6;1.2;2.4,0.6,0.283333333,SC,S,0.571377102
Human,1,1,1,62,Visual,OTHER,0.3;0.6;1.2;2.4,2.4,5.0295,SC,L,0.921044654
Human,1,1,1,63,Visual,OTHER,0.3;0.6;1.2;2.4,0.3,0.60475,SC,S,1.5260752
Human,1,1,1,64,Visual,OTHER,0.3;0.6;1.2;2.4,2.4,5.0295,SC,L,0.517028886
Human,1,1,1,65,Visual,OTHER,0.3;0.6;1.2;2.4,1.2,0.569047619,SC,S,1.197496195
Human,1,1,1,66,Visual,OTHER,0.3;0.6;1.2;2.4,2.4,5.0295,SC,L,0.467530283
Human,1,1,1,67,Visual,OTHER,0.3;0.6;1.2;2.4,1.2,2.44975,SC,L,0.461838794
Human,1,1,1,68,Visual,OTHER,0.3;0.6;1.2;2.4,0.3,0.143902439,SC,S,0.670022947
Human,1,1,1,69,Visual,OTHER,0.3;0.6;1.2;2.4,1.2,0.582926829,SC,S,0.53887509
Human,1,1,1,70,Visual,OTHER,0.3;0.6;1.2;2.4,0.6,1.19,SC,L,0.293935173
Human,1,1,1,71,Visual,OTHER,0.3;0.6;1.2;2.4,0.3,0.59,SC,S,1.318199845
Human,1,1,1,72,Visual,OTHER,0.3;0.6;1.2;2.4,1.2,2.44975,SC,L,0.720133713
Human,1,1,1,73,Visual,OTHER,0.3;0.6;1.2;2.4,0.6,0.290243902,SC,S,0.937503638
Human,1,1,1,74,Visual,OTHER,0.3;0.6;1.2;2.4,2.4,1.168292683,SC,S,0.796664099
Human,1,1,1,75,Visual,OTHER,0.3;0.6;1.2;2.4,1.2,0.5975,SC,S,1.072182303
Human,1,1,1,76,Visual,OTHER,0.3;0.6;1.2;2.4,0.3,0.1475,SC,S,0.545127125
Human,1,1,1,77,Visual,OTHER,0.3;0.6;1.2;2.4,0.6,0.2975,SC,S,2.763745224
Human,1,1,1,78,Visual,OTHER,0.3;0.6;1.2;2.4,0.3,0.151282051,SC,S,0.484522949
Human,1,1,1,79,Visual,OTHER,0.3;0.6;1.2;2.4,2.4,1.228205128,SC,L,1.069501824
Human,1,1,1,80,Visual,OTHER,0.3;0.6;1.2;2.4,0.3,0.59,SC,S,1.281417518
Human,1,1,1,81,Visual,OTHER,0.3;0.6;1.2;2.4,0.3,0.60475,SC,L,1.314878828
Human,1,1,1,82,Visual,OTHER,0.3;0.6;1.2;2.4,0.6,0.290243902,SC,S,1.050248862
Human,1,1,1,83,Visual,OTHER,0.3;0.6;1.2;2.4,0.3,0.60475,SC,S,0.71975579
Human,1,1,1,84,Visual,OTHER,0.3;0.6;1.2;2.4,0.3,0.6195,SC,L,0.484038471
Human,1,1,1,85,Visual,OTHER,0.3;0.6;1.2;2.4,2.4,5.0295,SC,L,0.811552831
Human,1,1,1,86,Visual,OTHER,0.3;0.6;1.2;2.4,2.4,1.14047619,SC,L,0.773342726
Human,1,1,1,87,Visual,OTHER,0.3;0.6;1.2;2.4,0.3,0.137209302,SC,S,1.125619217
Human,1,1,1,88,Visual,OTHER,0.3;0.6;1.2;2.4,0.3,0.137209302,SC,S,0.454665193
Human,1,1,1,89,Visual,OTHER,0.3;0.6;1.2;2.4,2.4,1.113953488,SC,S,0.740871503
Human,1,1,1,90,Visual,OTHER,0.3;0.6;1.2;2.4,1.2,0.569047619,SC,S,0.47714801
Human,1,1,1,91,Visual,OTHER,0.3;0.6;1.2;2.4,1.2,2.5095,SC,L,0.498241386
Human,1,1,1,92,Visual,OTHER,0.3;0.6;1.2;2.4,0.3,0.6195,SC,S,0.837357269
Human,1,1,1,93,Visual,OTHER,0.3;0.6;1.2;2.4,0.3,0.137209302,SC,L,1.676783308
Human,1,1,1,94,Visual,OTHER,0.3;0.6;1.2;2.4,0.6,1.309,SC,L,0.354135164
Human,1,1,1,95,Visual,OTHER,0.3;0.6;1.2;2.4,1.2,2.629,SC,L,0.527512335
Human,1,1,1,96,Visual,OTHER,0.3;0.6;1.2;2.4,0.6,1.309,SC,S,0.868855007
Human,1,1,1,97,Visual,OTHER,0.3;0.6;1.2;2.4,0.3,0.131111111,SC,L,0.645813817
Human,1,1,1,98,Visual,OTHER,0.3;0.6;1.2;2.4,2.4,1.041304348,SC,S,0.990004196
Human,1,1,1,99,Visual,OTHER,0.3;0.6;1.2;2.4,0.3,0.12826087,SC,S,0.454676361
Human,1,1,1,100,Visual,OTHER,0.3;0.6;1.2;2.4,1.2,2.7485,SC,L,0.715664136
Human,1,1,1,101,Visual,OTHER,0.3;0.6;1.2;2.4,2.4,5.38875,SC,L,0.366356095
Human,1,1,1,102,Visual,OTHER,0.3;0.6;1.2;2.4,0.6,0.264444444,SC,S,0.459422439
Human,1,1,1,103,Visual,OTHER,0.3;0.6;1.2;2.4,2.4,1.064444444,SC,L,0.558193856
Human,1,1,1,104,Visual,OTHER,0.3;0.6;1.2;2.4,2.4,5.5085,SC,L,0.657648674
Human,1,1,1,105,Visual,OTHER,0.3;0.6;1.2;2.4,0.6,1.3685,SC,S,0.570075802
Human,1,1,1,106,Visual,OTHER,0.3;0.6;1.2;2.4,0.6,1.39825,SC,S,0.749196986
Human,1,1,1,107,Visual,OTHER,0.3;0.6;1.2;2.4,1.2,2.868,SC,L,0.521268449
Human,1,1,1,108,Visual,OTHER,0.3;0.6;1.2;2.4,2.4,0.997916667,SC,S,0.893003465
Human,1,1,1,109,Visual,OTHER,0.3;0.6;1.2;2.4,0.6,0.247916667,SC,S,0.488012099
Human,1,1,1,110,Visual,OTHER,0.3;0.6;1.2;2.4,2.4,1.019148936,SC,S,1.174780646
Human,1,1,1,111,Visual,OTHER,0.3;0.6;1.2;2.4,0.6,0.253191489,SC,S,0.720041647
Human,1,1,1,112,Visual,OTHER,0.3;0.6;1.2;2.4,0.6,1.39825,SC,S,1.494694581
Human,1,1,1,113,Visual,OTHER,0.3;0.6;1.2;2.4,2.4,0.997916667,SC,S,0.814225461
Human,1,1,1,114,Visual,OTHER,0.3;0.6;1.2;2.4,1.2,2.868,SC,L,0.851570145
Human,1,1,1,115,Visual,OTHER,0.3;0.6;1.2;2.4,2.4,0.997916667,SC,S,1.300954224
Human,1,1,1,116,Visual,OTHER,0.3;0.6;1.2;2.4,1.2,0.508510638,SC,S,0.809175717
Human,1,1,1,117,Visual,OTHER,0.3;0.6;1.2;2.4,0.6,0.253191489,SC,S,0.931097355
Human,1,1,1,118,Visual,OTHER,0.3;0.6;1.2;2.4,1.2,0.508510638,SC,S,0.534301674
Human,1,1,1,119,Visual,OTHER,0.3;0.6;1.2;2.4,0.6,1.3685,SC,L,0.455793529
Human,1,1,1,120,Visual,OTHER,0.3;0.6;1.2;2.4,0.6,1.3685,SC,S,0.653477934
Human,1,1,1,121,Visual,OTHER,0.3;0.6;1.2;2.4,0.6,1.39825,SC,S,1.040847868
Human,1,1,1,122,Visual,OTHER,0.3;0.6;1.2;2.4,1.2,0.497916667,SC,S,0.847425364
Human,1,1,1,123,Visual,OTHER,0.3;0.6;1.2;2.4,1.2,2.868,SC,L,0.50722099
Human,1,1,1,124,Visual,OTHER,0.3;0.6;1.2;2.4,1.2,0.497916667,SC,S,2.254625106
Human,1,1,1,125,Visual,OTHER,0.3;0.6;1.2;2.4,0.6,1.39825,SC,S,0.642162268
Human,1,1,1,126,Visual,OTHER,0.3;0.6;1.2;2.4,2.4,5.748,SC,L,0.472803703
Human,1,1,1,127,Visual,OTHER,0.3;0.6;1.2;2.4,0.3,0.708,SC,S,0.596741737
Human,1,1,1,128,Visual,OTHER,0.3;0.6;1.2;2.4,1.2,2.92775,SC,L,0.473332856
Human,1,1,1,129,Visual,OTHER,0.3;0.6;1.2;2.4,2.4,5.86775,SC,L,0.689872376
Human,1,1,1,130,Visual,OTHER,0.3;0.6;1.2;2.4,0.3,0.120408163,SC,S,0.690997694
Human,1,1,1,131,Visual,OTHER,0.3;0.6;1.2;2.4,0.6,1.428,SC,S,0.869542936
Human,1,1,1,132,Visual,OTHER,0.3;0.6;1.2;2.4,0.3,0.72275,SC,S,0.630737633
Human,1,1,1,133,Visual,OTHER,0.3;0.6;1.2;2.4,0.6,1.4875,SC,L,1.199099954
Human,1,1,1,134,Visual,OTHER,0.3;0.6;1.2;2.4,0.3,0.118,SC,S,1.086591989
Human,1,1,1,135,Visual,OTHER,0.3;0.6;1.2;2.4,1.2,2.9875,SC,L,3.065730438
Human,1,1,1,136,Visual,OTHER,0.3;0.6;1.2;2.4,0.6,1.45775,SC,S,2.706404108
Human,1,1,1,137,Visual,OTHER,0.3;0.6;1.2;2.4,0.3,0.7375,SC,S,3.127171661
Human,1,1,1,138,Visual,OTHER,0.3;0.6;1.2;2.4,1.2,3.04725,SC,L,1.463830136
Human,1,1,1,139,Visual,OTHER,0.3;0.6;1.2;2.4,2.4,0.939215686,SC,S,9.952745239
Human,1,1,1,140,Visual,OTHER,0.3;0.6;1.2;2.4,0.3,0.115686275,SC,S,2.44132317
Human,1,1,1,141,Visual,OTHER,0.3;0.6;1.2;2.4,2.4,0.958,SC,S,0.479208779
Human,1,1,1,142,Visual,OTHER,0.3;0.6;1.2;2.4,0.3,0.118,SC,S,1.013394694
Human,1,1,1,143,Visual,OTHER,0.3;0.6;1.2;2.4,0.3,0.118,SC,S,1.121935369
Human,1,1,1,144,Visual,OTHER,0.3;0.6;1.2;2.4,0.3,0.72275,SC,L,0.83181067
Human,1,1,1,145,Visual,OTHER,0.3;0.6;1.2;2.4,0.6,0.242857143,SC,S,1.060444039
Human,1,1,1,146,Visual,OTHER,0.3;0.6;1.2;2.4,0.3,0.120408163,SC,S,1.193757108
Human,1,1,1,147,Visual,OTHER,0.3;0.6;1.2;2.4,0.3,0.122916667,SC,S,0.842979633
Human,1,1,1,148,Visual,OTHER,0.3;0.6;1.2;2.4,0.3,0.708,SC,L,0.982813087
Human,1,1,1,149,Visual,OTHER,0.3;0.6;1.2;2.4,1.2,0.497916667,SC,S,0.853324531
Human,1,1,1,150,Visual,OTHER,0.3;0.6;1.2;2.4,0.6,0.253191489,SC,S,0.986323971
Human,1,1,1,151,Visual,OTHER,0.3;0.6;1.2;2.4,1.2,2.80825,SC,L,0.555980348
Human,1,1,1,152,Visual,OTHER,0.3;0.6;1.2;2.4,2.4,1.019148936,SC,S,0.575872941
Human,1,1,1,153,Visual,OTHER,0.3;0.6;1.2;2.4,0.3,0.12826087,SC,S,0.543227547
Human,1,1,1,154,Visual,OTHER,0.3;0.6;1.2;2.4,0.3,0.12826087,SC,S,0.654219593
Human,1,1,1,155,Visual,OTHER,0.3;0.6;1.2;2.4,0.6,0.258695652,SC,S,0.451946378
Human,1,1,1,156,Visual,OTHER,0.3;0.6;1.2;2.4,1.2,2.68875,SC,L,2.341982755
Human,1,1,1,157,Visual,OTHER,0.3;0.6;1.2;2.4,0.3,0.131111111,SC,S,0.816668078
Human,1,1,1,158,Visual,OTHER,0.3;0.6;1.2;2.4,1.2,0.531111111,SC,S,1.215761484
Human,1,1,1,159,Visual,OTHER,0.3;0.6;1.2;2.4,0.3,0.134090909,SC,S,0.645673454
Human,1,1,1,160,Visual,OTHER,0.3;0.6;1.2;2.4,0.6,1.309,SC,L,0.604955231
Human,1,1,1,161,Visual,OTHER,0.3;0.6;1.2;2.4,1.2,2.629,SC,L,0.500968049
Human,1,1,1,162,Visual,OTHER,0.3;0.6;1.2;2.4,0.6,1.27925,SC,L,0.66585764
Human,1,1,1,163,Visual,OTHER,0.3;0.6;1.2;2.4,2.4,5.14925,SC,L,0.506551776
Human,1,1,1,164,Visual,OTHER,0.3;0.6;1.2;2.4,0.6,0.276744186,SC,S,1.160182904
Human,1,1,1,165,Visual,OTHER,0.3;0.6;1.2;2.4,1.2,2.5095,SC,L,0.45556593
Human,1,1,1,166,Visual,OTHER,0.3;0.6;1.2;2.4,2.4,1.14047619,SC,S,1.062122357
Human,1,1,1,167,Visual,OTHER,0.3;0.6;1.2;2.4,0.6,0.283333333,SC,S,0.949452597
Human,1,1,1,168,Visual,OTHER,0.3;0.6;1.2;2.4,0.3,0.143902439,SC,S,0.978273781
Human,1,1,1,169,Visual,OTHER,0.3;0.6;1.2;2.4,1.2,0.582926829,SC,L,1.673218996
Human,1,1,1,170,Visual,OTHER,0.3;0.6;1.2;2.4,0.6,0.283333333,SC,S,0.834915558
Human,1,1,1,171,Visual,OTHER,0.3;0.6;1.2;2.4,0.3,0.6195,SC,L,0.776917302
Human,1,1,1,172,Visual,OTHER,0.3;0.6;1.2;2.4,0.6,0.283333333,SC,S,0.47868506
Human,1,1,1,173,Visual,OTHER,0.3;0.6;1.2;2.4,0.6,0.290243902,SC,S,0.494525844
Human,1,1,1,174,Visual,OTHER,0.3;0.6;1.2;2.4,1.2,2.44975,SC,L,2.461843322
Human,1,1,1,175,Visual,OTHER,0.3;0.6;1.2;2.4,0.6,1.21975,SC,S,0.571487883
Human,1,1,1,176,Visual,OTHER,0.3;0.6;1.2;2.4,1.2,2.5095,SC,L,0.521934343
Human,1,1,1,177,Visual,OTHER,0.3;0.6;1.2;2.4,0.3,0.14047619,SC,S,0.912248578
Human,1,1,1,178,Visual,OTHER,0.3;0.6;1.2;2.4,1.2,0.569047619,SC,S,0.76120058
Human,1,1,1,179,Visual,OTHER,0.3;0.6;1.2;2.4,2.4,4.90975,SC,L,0.488776398
Human,1,1,1,180,Visual,OTHER,0.3;0.6;1.2;2.4,0.6,0.290243902,SC,S,1.621041726
Human,1,1,1,181,Visual,OTHER,0.3;0.6;1.2;2.4,2.4,4.90975,SC,L,1.092819574
Human,1,1,1,182,Visual,OTHER,0.3;0.6;1.2;2.4,0.3,0.59,SC,L,1.862577918
Human,1,1,1,183,Visual,OTHER,0.3;0.6;1.2;2.4,1.2,2.39,SC,L,0.546104232
Human,1,1,1,184,Visual,OTHER,0.3;0.6;1.2;2.4,0.3,0.59,SC,S,0.669750674
Human,1,1,1,185,Visual,OTHER,0.3;0.6;1.2;2.4,2.4,4.90975,SC,L,0.442053057
Human,1,1,1,186,Visual,OTHER,0.3;0.6;1.2;2.4,2.4,4.90975,SC,L,0.459436928
Human,1,1,1,187,Visual,OTHER,0.3;0.6;1.2;2.4,0.3,0.143902439,SC,S,0.518073307
Human,1,1,1,188,Visual,OTHER,0.3;0.6;1.2;2.4,0.6,1.19,SC,L,0.519925493
Human,1,1,1,189,Visual,OTHER,0.3;0.6;1.2;2.4,1.2,0.5975,SC,S,0.532441337
Human,1,1,1,190,Visual,OTHER,0.3;0.6;1.2;2.4,1.2,0.5975,SC,S,0.627943053
Human,1,1,1,191,Visual,OTHER,0.3;0.6;1.2;2.4,2.4,4.67025,SC,L,0.420979604
Human,1,1,1,192,Visual,OTHER,0.3;0.6;1.2;2.4,2.4,1.228205128,SC,S,0.452352676
Human,1,1,1,193,Visual,OTHER,0.3;0.6;1.2;2.4,2.4,4.67025,SC,L,0.462264108
Human,1,1,1,194,Visual,OTHER,0.3;0.6;1.2;2.4,2.4,4.5505,SC,L,0.387302467
Human,1,1,1,195,Visual,OTHER,0.3;0.6;1.2;2.4,1.2,0.628947368,SC,S,0.417641079
Human,1,1,1,196,Visual,OTHER,0.3;0.6;1.2;2.4,0.3,0.5605,SC,S,0.386976463
Human,1,1,1,197,Visual,OTHER,0.3;0.6;1.2;2.4,0.6,0.305128205,SC,S,0.36165107
Human,1,1,1,198,Visual,OTHER,0.3;0.6;1.2;2.4,1.2,0.612820513,SC,S,0.447325873
Human,1,1,1,199,Visual,OTHER,0.3;0.6;1.2;2.4,2.4,4.67025,SC,L,0.623987234
Human,1,1,1,200,Visual,OTHER,0.3;0.6;1.2;2.4,1.2,0.628947368,SC,S,0.828203796
Human,2,1,1,1,Visual,OTHER,0.3;0.6;1.2;2.4,1.2,0.746323529,SC,S,2.298227059
Human,2,1,1,2,Visual,OTHER,0.3;0.6;1.2;2.4,0.6,0.950588235,SC,S,1.240374951
Human,2,1,1,3,Visual,OTHER,0.3;0.6;1.2;2.4,0.3,0.485294118,SC,L,0.840974687
Human,2,1,1,4,Visual,OTHER,0.3;0.6;1.2;2.4,2.4,3.950294118,SC,L,0.409029367
Human,2,1,1,5,Visual,OTHER,0.3;0.6;1.2;2.4,1.2,1.970294118,SC,L,0.499108974
Human,2,1,1,6,Visual,OTHER,0.3;0.6;1.2;2.4,0.3,0.183823529,SC,S,0.935277317
Human,2,1,1,7,Visual,OTHER,0.3;0.6;1.2;2.4,1.2,0.746323529,SC,S,0.600295827
Human,2,1,1,8,Visual,OTHER,0.3;0.6;1.2;2.4,1.2,0.746323529,SC,L,0.60381763
Human,2,1,1,9,Visual,OTHER,0.3;0.6;1.2;2.4,0.6,0.980294118,SC,L,1.020184852
Human,2,1,1,10,Visual,OTHER,0.3;0.6;1.2;2.4,0.3,0.178253119,SC,S,0.893785126
Human,2,1,1,11,Visual,OTHER,0.3;0.6;1.2;2.4,2.4,3.950294118,SC,L,0.498923028
Human,2,1,1,12,Visual,OTHER,0.3;0.6;1.2;2.4,0.6,0.371323529,SC,S,0.790576714
Human,2,1,1,13,Visual,OTHER,0.3;0.6;1.2;2.4,0.3,0.183823529,SC,S,0.905557673
Human,2,1,1,14,Visual,OTHER,0.3;0.6;1.2;2.4,0.3,0.183823529,SC,S,0.795686302
Human,2,1,1,15,Visual,OTHER,0.3;0.6;1.2;2.4,0.6,0.920882353,SC,L,0.589544473
Human,2,1,1,16,Visual,OTHER,0.3;0.6;1.2;2.4,2.4,1.54459203,SC,L,0.743018643
Human,2,1,1,17,Visual,OTHER,0.3;0.6;1.2;2.4,0.3,0.470588235,SC,S,0.833309853
Human,2,1,1,18,Visual,OTHER,0.3;0.6;1.2;2.4,0.3,0.485294118,SC,S,0.831847039
Human,2,1,1,19,Visual,OTHER,0.3;0.6;1.2;2.4,1.2,0.702422145,SC,S,0.556584662
Human,2,1,1,20,Visual,OTHER,0.3;0.6;1.2;2.4,1.2,2.03,SC,L,0.723656425
Human,2,1,1,21,Visual,OTHER,0.3;0.6;1.2;2.4,0.6,1.01,SC,S,0.972359935
Human,2,1,1,22,Visual,OTHER,0.3;0.6;1.2;2.4,0.6,1.039705882,SC,S,1.888606413
Human,2,1,1,23,Visual,OTHER,0.3;0.6;1.2;2.4,0.3,0.529411765,SC,L,0.622536584
Human,2,1,1,24,Visual,OTHER,0.3;0.6;1.2;2.4,0.3,0.163398693,SC,S,0.632379339
Human,2,1,1,25,Visual,OTHER,0.3;0.6;1.2;2.4,0.6,0.330065359,SC,S,0.554468018
Human,2,1,1,26,Visual,OTHER,0.3;0.6;1.2;2.4,2.4,1.368067227,SC,S,0.648059466
Human,2,1,1,27,Visual,OTHER,0.3;0.6;1.2;2.4,0.3,0.514705882,SC,L,0.777391763
Human,2,1,1,28,Visual,OTHER,0.3;0.6;1.2;2.4,1.2,0.682352941,SC,S,0.821598282
Human,2,1,1,29,Visual,OTHER,0.3;0.6;1.2;2.4,2.4,1.408304498,SC,L,0.847388008
Human,2,1,1,30,Visual,OTHER,0.3;0.6;1.2;2.4,1.2,2.089705882,SC,L,0.456995856
Human,2,1,1,31,Visual,OTHER,0.3;0.6;1.2;2.4,2.4,1.368067227,SC,L,0.885937365
Human,2,1,1,32,Visual,OTHER,0.3;0.6;1.2;2.4,0.6,1.069411765,SC,L,0.31799226
Human,2,1,1,33,Visual,OTHER,0.3;0.6;1.2;2.4,2.4,1.330065359,SC,S,0.802494456
Human,2,1,1,34,Visual,OTHER,0.3;0.6;1.2;2.4,2.4,4.309411765,SC,L,1.204897022
Human,2,1,1,35,Visual,OTHER,0.3;0.6;1.2;2.4,0.6,1.039705882,SC,S,0.75796857
Human,2,1,1,36,Visual,OTHER,0.3;0.6;1.2;2.4,1.2,0.663398693,SC,L,0.74876757
Human,2,1,1,37,Visual,OTHER,0.3;0.6;1.2;2.4,1.2,2.209117647,SC,L,0.851250309
Human,2,1,1,38,Visual,OTHER,0.3;0.6;1.2;2.4,0.3,0.544117647,SC,L,1.423975672
Human,2,1,1,39,Visual,OTHER,0.3;0.6;1.2;2.4,0.6,1.099117647,SC,S,0.755305258
Human,2,1,1,40,Visual,OTHER,0.3;0.6;1.2;2.4,0.3,0.558823529,SC,S,0.909798809
Human,2,1,1,41,Visual,OTHER,0.3;0.6;1.2;2.4,0.3,0.150829563,SC,S,0.716035663
Human,2,1,1,42,Visual,OTHER,0.3;0.6;1.2;2.4,1.2,2.328529412,SC,L,0.365441662
Human,2,1,1,43,Visual,OTHER,0.3;0.6;1.2;2.4,1.2,0.612368024,SC,S,1.537979509
Human,2,1,1,44,Visual,OTHER,0.3;0.6;1.2;2.4,0.6,0.312693498,SC,S,0.806645638
Human,2,1,1,45,Visual,OTHER,0.3;0.6;1.2;2.4,0.6,1.128823529,SC,L,0.543648745
Human,2,1,1,46,Visual,OTHER,0.3;0.6;1.2;2.4,1.2,0.628482972,SC,L,1.608863223
Human,2,1,1,47,Visual,OTHER,0.3;0.6;1.2;2.4,2.4,1.22775264,SC,S,0.548861871
Human,2,1,1,48,Visual,OTHER,0.3;0.6;1.2;2.4,2.4,1.22775264,SC,S,0.633043129
Human,2,1,1,49,Visual,OTHER,0.3;0.6;1.2;2.4,0.3,0.573529412,SC,L,0.955100174
Human,2,1,1,50,Visual,OTHER,0.3;0.6;1.2;2.4,1.2,2.268823529,SC,L,0.592083721
Human,2,1,1,51,Visual,OTHER,0.3;0.6;1.2;2.4,1.2,2.268823529,SC,L,0.542708451
Human,2,1,1,52,Visual,OTHER,0.3;0.6;1.2;2.4,0.3,0.154798762,SC,S,1.428376794
Human,2,1,1,53,Visual,OTHER,0.3;0.6;1.2;2.4,0.3,0.158982512,SC,S,0.637432478
Human,2,1,1,54,Visual,OTHER,0.3;0.6;1.2;2.4,1.2,2.209117647,SC,L,0.530300186
Human,2,1,1,55,Visual,OTHER,0.3;0.6;1.2;2.4,0.6,0.321144674,SC,S,0.574231408
Human,2,1,1,56,Visual,OTHER,0.3;0.6;1.2;2.4,0.3,0.163398693,SC,S,0.444968539
Human,2,1,1,57,Visual,OTHER,0.3;0.6;1.2;2.4,1.2,0.663398693,SC,S,0.631743319
Human,2,1,1,58,Visual,OTHER,0.3;0.6;1.2;2.4,0.3,0.163398693,SC,S,0.525238293
Human,2,1,1,59,Visual,OTHER,0.3;0.6;1.2;2.4,0.3,0.514705882,SC,S,0.71384295
Human,2,1,1,60,Visual,OTHER,0.3;0.6;1.2;2.4,1.2,2.149411765,SC,L,0.31515085
Human,2,1,1,61,Visual,OTHER,0.3;0.6;1.2;2.4,0.3,0.163398693,SC,S,0.612643116
Human,2,1,1,62,Visual,OTHER,0.3;0.6;1.2;2.4,0.3,0.529411765,SC,L,0.584126989
Human,2,1,1,63,Visual,OTHER,0.3;0.6;1.2;2.4,1.2,0.682352941,SC,S,0.490962069
Human,2,1,1,64,Visual,OTHER,0.3;0.6;1.2;2.4,2.4,1.368067227,SC,L,0.635843788
Human,2,1,1,65,Visual,OTHER,0.3;0.6;1.2;2.4,1.2,2.149411765,SC,L,0.762207593
Human,2,1,1,66,Visual,OTHER,0.3;0.6;1.2;2.4,0.6,0.330065359,SC,S,0.530856816
Human,2,1,1,67,Visual,OTHER,0.3;0.6;1.2;2.4,0.3,0.163398693,SC,S,1.024076433
Human,2,1,1,68,Visual,OTHER,0.3;0.6;1.2;2.4,0.6,1.039705882,SC,L,0.747365429
Human,2,1,1,69,Visual,OTHER,0.3;0.6;1.2;2.4,1.2,2.089705882,SC,L,1.042633288
Human,2,1,1,70,Visual,OTHER,0.3;0.6;1.2;2.4,2.4,1.368067227,SC,L,1.466577502
Human,2,1,1,71,Visual,OTHER,0.3;0.6;1.2;2.4,1.2,0.663398693,SC,S,2.126407035
Human,2,1,1,72,Visual,OTHER,0.3;0.6;1.2;2.4,1.2,2.149411765,SC,L,1.194683281
Human,2,1,1,73,Visual,OTHER,0.3;0.6;1.2;2.4,0.3,0.163398693,SC,S,0.787015368
Human,2,1,1,74,Visual,OTHER,0.3;0.6;1.2;2.4,0.6,0.339495798,SC,S,0.711834071
Human,2,1,1,75,Visual,OTHER,0.3;0.6;1.2;2.4,1.2,0.682352941,SC,S,1.362352425
Human,2,1,1,76,Visual,OTHER,0.3;0.6;1.2;2.4,0.6,1.039705882,SC,S,0.486245202
Human,2,1,1,77,Visual,OTHER,0.3;0.6;1.2;2.4,0.6,0.330065359,SC,S,1.461257216
Human,2,1,1,78,Visual,OTHER,0.3;0.6;1.2;2.4,2.4,1.330065359,SC,L,0.572862774
Human,2,1,1,79,Visual,OTHER,0.3;0.6;1.2;2.4,2.4,1.294117647,SC,L,0.621103352
Human,2,1,1,80,Visual,OTHER,0.3;0.6;1.2;2.4,0.6,1.128823529,SC,S,1.272446992
Human,2,1,1,81,Visual,OTHER,0.3;0.6;1.2;2.4,2.4,4.668529412,SC,L,0.317362278
Human,2,1,1,82,Visual,OTHER,0.3;0.6;1.2;2.4,0.6,1.158529412,SC,L,0.641633467
Human,2,1,1,83,Visual,OTHER,0.3;0.6;1.2;2.4,2.4,4.668529412,SC,L,0.762093188
Human,2,1,1,84,Visual,OTHER,0.3;0.6;1.2;2.4,0.6,0.312693498,SC,S,1.658269283
Human,2,1,1,85,Visual,OTHER,0.3;0.6;1.2;2.4,0.3,0.154798762,SC,S,0.423558501
Human,2,1,1,86,Visual,OTHER,0.3;0.6;1.2;2.4,0.3,0.154798762,SC,S,0.840060654
Human,2,1,1,87,Visual,OTHER,0.3;0.6;1.2;2.4,1.2,0.645468998,SC,S,0.85135747
Human,2,1,1,88,Visual,OTHER,0.3;0.6;1.2;2.4,1.2,0.645468998,SC,S,1.532391172
Human,2,1,1,89,Visual,OTHER,0.3;0.6;1.2;2.4,0.3,0.544117647,SC,S,1.544734838
Human,2,1,1,90,Visual,OTHER,0.3;0.6;1.2;2.4,0.3,0.154798762,SC,S,1.097038756
Human,2,1,1,91,Visual,OTHER,0.3;0.6;1.2;2.4,1.2,2.268823529,SC,L,1.226534662
Human,2,1,1,92,Visual,OTHER,0.3;0.6;1.2;2.4,0.3,0.154798762,SC,S,0.659591129
Human,2,1,1,93,Visual,OTHER,0.3;0.6;1.2;2.4,1.2,0.645468998,SC,S,1.301626306
Human,2,1,1,94,Visual,OTHER,0.3;0.6;1.2;2.4,0.6,1.099117647,SC,L,0.624512259
Human,2,1,1,95,Visual,OTHER,0.3;0.6;1.2;2.4,0.3,0.158982512,SC,S,1.27106417
Human,2,1,1,96,Visual,OTHER,0.3;0.6;1.2;2.4,2.4,4.309411765,SC,L,0.400576074
Human,2,1,1,97,Visual,OTHER,0.3;0.6;1.2;2.4,0.6,0.330065359,SC,S,1.326244212
Human,2,1,1,98,Visual,OTHER,0.3;0.6;1.2;2.4,0.6,1.069411765,SC,L,1.313564575
Human,2,1,1,99,Visual,OTHER,0.3;0.6;1.2;2.4,0.6,0.339495798,SC,S,0.538063728
Human,2,1,1,100,Visual,OTHER,0.3;0.6;1.2;2.4,2.4,4.189705882,SC,L,0.468099179
Human,2,1,1,101,Visual,OTHER,0.3;0.6;1.2;2.4,0.6,0.339495798,SC,S,1.142860528
Human,2,1,1,102,Visual,OTHER,0.3;0.6;1.2;2.4,1.2,2.03,SC,L,0.332797898
Human,2,1,1,103,Visual,OTHER,0.3;0.6;1.2;2.4,1.2,0.702422145,SC,S,0.704907285
Human,2,1,1,104,Visual,OTHER,0.3;0.6;1.2;2.4,0.6,1.01,SC,S,1.009677099
Human,2,1,1,105,Visual,OTHER,0.3;0.6;1.2;2.4,1.2,2.089705882,SC,L,0.917144576
Human,2,1,1,106,Visual,OTHER,0.3;0.6;1.2;2.4,1.2,0.682352941,SC,S,0.580370942
Human,2,1,1,107,Visual,OTHER,0.3;0.6;1.2;2.4,0.6,1.039705882,SC,L,0.49873346
Human,2,1,1,108,Visual,OTHER,0.3;0.6;1.2;2.4,2.4,1.408304498,SC,L,1.126940422
Human,2,1,1,109,Visual,OTHER,0.3;0.6;1.2;2.4,0.6,0.339495798,SC,S,1.23080055
Human,2,1,1,110,Visual,OTHER,0.3;0.6;1.2;2.4,0.6,1.039705882,SC,L,1.461114738
Human,2,1,1,111,Visual,OTHER,0.3;0.6;1.2;2.4,0.3,0.168067227,SC,S,0.830213673
Human,2,1,1,112,Visual,OTHER,0.3;0.6;1.2;2.4,2.4,1.408304498,SC,L,0.606405176
Human,2,1,1,113,Visual,OTHER,0.3;0.6;1.2;2.4,0.3,0.168067227,SC,S,0.656233236
Human,2,1,1,114,Visual,OTHER,0.3;0.6;1.2;2.4,0.6,0.339495798,SC,S,0.958273026
Human,2,1,1,115,Visual,OTHER,0.3;0.6;1.2;2.4,2.4,4.189705882,SC,L,0.341403932
Human,2,1,1,116,Visual,OTHER,0.3;0.6;1.2;2.4,1.2,2.03,SC,L,0.526955575
Human,2,1,1,117,Visual,OTHER,0.3;0.6;1.2;2.4,2.4,4.07,SC,L,1.326665307
Human,2,1,1,118,Visual,OTHER,0.3;0.6;1.2;2.4,0.6,1.01,SC,S,1.538559685
Human,2,1,1,119,Visual,OTHER,0.3;0.6;1.2;2.4,0.6,0.339495798,SC,S,1.20245769
Human,2,1,1,120,Visual,OTHER,0.3;0.6;1.2;2.4,2.4,4.189705882,SC,L,0.547616698
Human,2,1,1,121,Visual,OTHER,0.3;0.6;1.2;2.4,0.3,0.514705882,SC,L,0.922298235
Human,2,1,1,122,Visual,OTHER,0.3;0.6;1.2;2.4,2.4,1.408304498,SC,S,2.461457047
Human,2,1,1,123,Visual,OTHER,0.3;0.6;1.2;2.4,0.6,0.349480969,SC,S,2.746839287
Human,2,1,1,124,Visual,OTHER,0.3;0.6;1.2;2.4,1.2,2.03,SC,L,0.656473215
Human,2,1,1,125,Visual,OTHER,0.3;0.6;1.2;2.4,2.4,1.450980392,SC,S,1.210383029
Human,2,1,1,126,Visual,OTHER,0.3;0.6;1.2;2.4,1.2,0.723707665,SC,S,1.150526871
Human,2,1,1,127,Visual,OTHER,0.3;0.6;1.2;2.4,2.4,3.950294118,SC,L,0.575953822
Human,2,1,1,128,Visual,OTHER,0.3;0.6;1.2;2.4,2.4,3.830588235,SC,L,1.029996213
Human,2,1,1,129,Visual,OTHER,0.3;0.6;1.2;2.4,2.4,1.496323529,SC,S,2.36745839
Human,2,1,1,130,Visual,OTHER,0.3;0.6;1.2;2.4,0.6,0.371323529,SC,S,1.645587835
Human,2,1,1,131,Visual,OTHER,0.3;0.6;1.2;2.4,2.4,3.710882353,SC,L,1.057969898
Human,2,1,1,132,Visual,OTHER,0.3;0.6;1.2;2.4,2.4,3.710882353,SC,S,1.216642703
Human,2,1,1,133,Visual,OTHER,0.3;0.6;1.2;2.4,2.4,1.496323529,SC,S,1.735379467
Human,2,1,1,134,Visual,OTHER,0.3;0.6;1.2;2.4,2.4,3.830588235,SC,L,0.811577127
Human,2,1,1,135,Visual,OTHER,0.3;0.6;1.2;2.4,0.3,0.470588235,SC,S,1.008892866
Human,2,1,1,136,Visual,OTHER,0.3;0.6;1.2;2.4,2.4,1.450980392,SC,S,0.653196825
Human,2,1,1,137,Visual,OTHER,0.3;0.6;1.2;2.4,0.3,0.485294118,SC,S,1.691166911
Human,2,1,1,138,Visual,OTHER,0.3;0.6;1.2;2.4,0.3,0.5,SC,L,0.797980137
Human,2,1,1,139,Visual,OTHER,0.3;0.6;1.2;2.4,1.2,2.03,SC,L,0.906051214
Human,2,1,1,140,Visual,OTHER,0.3;0.6;1.2;2.4,2.4,4.07,SC,L,0.671480194
Human,2,1,1,141,Visual,OTHER,0.3;0.6;1.2;2.4,0.3,0.178253119,SC,S,1.437161227
Human,2,1,1,142,Visual,OTHER,0.3;0.6;1.2;2.4,0.3,0.485294118,SC,S,1.141103098
Human,2,1,1,143,Visual,OTHER,0.3;0.6;1.2;2.4,2.4,1.408304498,SC,S,0.931056708
Human,2,1,1,144,Visual,OTHER,0.3;0.6;1.2;2.4,2.4,1.408304498,SC,S,1.216921622
Human,2,1,1,145,Visual,OTHER,0.3;0.6;1.2;2.4,2.4,4.07,SC,L,1.05546627
Human,2,1,1,146,Visual,OTHER,0.3;0.6;1.2;2.4,0.6,0.980294118,SC,S,1.432333879
Human,2,1,1,147,Visual,OTHER,0.3;0.6;1.2;2.4,0.3,0.5,SC,L,0.632545664
Human,2,1,1,148,Visual,OTHER,0.3;0.6;1.2;2.4,1.2,2.03,SC,L,0.609878983
Human,2,1,1,149,Visual,OTHER,0.3;0.6;1.2;2.4,2.4,4.07,SC,L,0.470844295
Human,2,1,1,150,Visual,OTHER,0.3;0.6;1.2;2.4,0.6,0.360071301,SC,S,2.999518598
Human,2,1,1,151,Visual,OTHER,0.3;0.6;1.2;2.4,0.6,0.360071301,SC,S,0.650426352
Human,2,1,1,152,Visual,OTHER,0.3;0.6;1.2;2.4,0.6,0.980294118,SC,L,0.661739166
Human,2,1,1,153,Visual,OTHER,0.3;0.6;1.2;2.4,0.3,0.470588235,SC,L,0.664500583
Human,2,1,1,154,Visual,OTHER,0.3;0.6;1.2;2.4,0.3,0.470588235,SC,S,1.682607364
Human,2,1,1,155,Visual,OTHER,0.3;0.6;1.2;2.4,0.6,0.360071301,SC,S,0.881056286
Human,2,1,1,156,Visual,OTHER,0.3;0.6;1.2;2.4,0.3,0.178253119,SC,S,0.969478076
Human,2,1,1,157,Visual,OTHER,0.3;0.6;1.2;2.4,1.2,0.723707665,SC,S,1.199777171
Human,2,1,1,158,Visual,OTHER,0.3;0.6;1.2;2.4,0.6,0.371323529,SC,S,0.567805408
Human,2,1,1,159,Visual,OTHER,0.3;0.6;1.2;2.4,0.6,0.371323529,SC,L,0.561462722
Human,2,1,1,160,Visual,OTHER,0.3;0.6;1.2;2.4,0.6,0.980294118,SC,S,1.45839377
Human,2,1,1,161,Visual,OTHER,0.3;0.6;1.2;2.4,0.6,1.01,SC,L,0.953269694
Human,2,1,1,162,Visual,OTHER,0.3;0.6;1.2;2.4,2.4,4.07,SC,L,1.362632853
Human,2,1,1,163,Visual,OTHER,0.3;0.6;1.2;2.4,1.2,0.702422145,SC,S,0.918152487
Human,2,1,1,164,Visual,OTHER,0.3;0.6;1.2;2.4,1.2,1.970294118,SC,L,0.82516808
Human,2,1,1,165,Visual,OTHER,0.3;0.6;1.2;2.4,1.2,0.723707665,SC,S,1.390949451
Human,2,1,1,166,Visual,OTHER,0.3;0.6;1.2;2.4,0.3,0.178253119,SC,S,5.115365895
Human,2,1,1,167,Visual,OTHER,0.3;0.6;1.2;2.4,1.2,1.910588235,SC,L,0.595952059
Human,2,1,1,168,Visual,OTHER,0.3;0.6;1.2;2.4,1.2,1.910588235,SC,L,1.840510728
Human,2,1,1,169,Visual,OTHER,0.3;0.6;1.2;2.4,2.4,3.830588235,SC,L,1.034319153
Human,2,1,1,170,Visual,OTHER,0.3;0.6;1.2;2.4,0.3,0.189753321,SC,S,1.643106846
Human,2,1,1,171,Visual,OTHER,0.3;0.6;1.2;2.4,1.2,1.850882353,SC,L,0.390183632
Human,2,1,1,172,Visual,OTHER,0.3;0.6;1.2;2.4,1.2,0.770398482,SC,S,1.225089355
Human,2,1,1,173,Visual,OTHER,0.3;0.6;1.2;2.4,1.2,0.796078431,SC,S,0.623031031
Human,2,1,1,174,Visual,OTHER,0.3;0.6;1.2;2.4,2.4,3.591176471,SC,L,0.659007029
Human,2,1,1,175,Visual,OTHER,0.3;0.6;1.2;2.4,2.4,3.591176471,SC,L,0.377080485
Human,2,1,1,176,Visual,OTHER,0.3;0.6;1.2;2.4,0.3,0.426470588,SC,S,0.760531665
Human,2,1,1,177,Visual,OTHER,0.3;0.6;1.2;2.4,2.4,1.596078431,SC,S,0.901318047
Human,2,1,1,178,Visual,OTHER,0.3;0.6;1.2;2.4,0.6,0.396078431,SC,S,0.622736415
Human,2,1,1,179,Visual,OTHER,0.3;0.6;1.2;2.4,0.3,0.196078431,SC,S,0.763885633
Human,2,1,1,180,Visual,OTHER,0.3;0.6;1.2;2.4,0.3,0.426470588,SC,S,2.215261391
Human,2,1,1,181,Visual,OTHER,0.3;0.6;1.2;2.4,1.2,1.791176471,SC,L,0.767887394
Human,2,1,1,182,Visual,OTHER,0.3;0.6;1.2;2.4,0.3,0.441176471,SC,L,1.202220126
Human,2,1,1,183,Visual,OTHER,0.3;0.6;1.2;2.4,1.2,1.791176471,SC,L,0.812442862
Human,2,1,1,184,Visual,OTHER,0.3;0.6;1.2;2.4,0.6,0.861470588,SC,S,1.984620289
Human,2,1,1,185,Visual,OTHER,0.3;0.6;1.2;2.4,2.4,3.591176471,SC,L,0.719462681
Human,2,1,1,186,Visual,OTHER,0.3;0.6;1.2;2.4,1.2,0.796078431,SC,S,1.423059526
Human,2,1,1,187,Visual,OTHER,0.3;0.6;1.2;2.4,2.4,1.596078431,SC,S,1.931822226
Human,2,1,1,188,Visual,OTHER,0.3;0.6;1.2;2.4,2.4,3.471470588,SC,L,0.688071939
Human,2,1,1,189,Visual,OTHER,0.3;0.6;1.2;2.4,2.4,1.651115619,SC,S,0.638274366
Human,2,1,1,190,Visual,OTHER,0.3;0.6;1.2;2.4,0.3,0.426470588,SC,L,0.564854121
Human,2,1,1,191,Visual,OTHER,0.3;0.6;1.2;2.4,0.6,0.424369748,SC,S,0.634499907
Human,2,1,1,192,Visual,OTHER,0.3;0.6;1.2;2.4,1.2,0.852941176,SC,S,0.657368834
Human,2,1,1,193,Visual,OTHER,0.3;0.6;1.2;2.4,0.3,0.411764706,SC,L,0.638660446
Human,2,1,1,194,Visual,OTHER,0.3;0.6;1.2;2.4,0.3,0.397058824,SC,L,0.733388397
Human,2,1,1,195,Visual,OTHER,0.3;0.6;1.2;2.4,0.6,0.440087146,SC,S,1.366617408
Human,2,1,1,196,Visual,OTHER,0.3;0.6;1.2;2.4,2.4,1.773420479,SC,L,0.724933293
Human,2,1,1,197,Visual,OTHER,0.3;0.6;1.2;2.4,2.4,3.351764706,SC,L,0.597452606
Human,2,1,1,198,Visual,OTHER,0.3;0.6;1.2;2.4,2.4,1.710084034,SC,S,1.010424806
Human,2,1,1,199,Visual,OTHER,0.3;0.6;1.2;2.4,0.6,0.424369748,SC,L,1.337926503
Human,2,1,1,200,Visual,OTHER,0.3;0.6;1.2;2.4,0.6,0.861470588,SC,S,1.63719914
Human,3,1,1,1,Visual,OTHER,0.3;0.6;1.2;2.4,2.4,1.496875,SC,S,3.495094573
Human,3,1,1,2,Visual,OTHER,0.3;0.6;1.2;2.4,2.4,3.832,SC,L,0.815514116
Human,3,1,1,3,Visual,OTHER,0.3;0.6;1.2;2.4,1.2,0.746875,SC,S,1.679018583
Human,3,1,1,4,Visual,OTHER,0.3;0.6;1.2;2.4,0.6,0.383870968,SC,L,1.440675722
Human,3,1,1,5,Visual,OTHER,0.3;0.6;1.2;2.4,0.6,0.952,SC,L,1.070229027
Human,3,1,1,6,Visual,OTHER,0.3;0.6;1.2;2.4,0.6,0.371875,SC,S,2.326128118
Human,3,1,1,7,Visual,OTHER,0.3;0.6;1.2;2.4,0.6,0.952,SC,L,1.463989549
Human,3,1,1,8,Visual,OTHER,0.3;0.6;1.2;2.4,0.3,0.45725,SC,L,1.713876277
Human,3,1,1,9,Visual,OTHER,0.3;0.6;1.2;2.4,0.6,0.92225,SC,L,0.419846772
Human,3,1,1,10,Visual,OTHER,0.3;0.6;1.2;2.4,0.6,0.92225,SC,L,1.319253354
Human,3,1,1,11,Visual,OTHER,0.3;0.6;1.2;2.4,1.2,0.796666667,SC,S,1.35578665
Human,3,1,1,12,Visual,OTHER,0.3;0.6;1.2;2.4,2.4,3.5925,SC,L,0.509445398
Human,3,1,1,13,Visual,OTHER,0.3;0.6;1.2;2.4,1.2,1.7925,SC,S,1.31651673
Human,3,1,1,14,Visual,OTHER,0.3;0.6;1.2;2.4,1.2,1.85225,SC,L,0.590965458
Human,3,1,1,15,Visual,OTHER,0.3;0.6;1.2;2.4,2.4,1.54516129,SC,S,1.340937763
Human,3,1,1,16,Visual,OTHER,0.3;0.6;1.2;2.4,0.3,0.45725,SC,L,0.515502736
Human,3,1,1,17,Visual,OTHER,0.3;0.6;1.2;2.4,0.3,0.4425,SC,L,0.394577223
Human,3,1,1,18,Visual,OTHER,0.3;0.6;1.2;2.4,0.6,0.396666667,SC,S,0.898106972
Human,3,1,1,19,Visual,OTHER,0.3;0.6;1.2;2.4,2.4,1.596666667,SC,L,0.379704489
Human,3,1,1,20,Visual,OTHER,0.3;0.6;1.2;2.4,1.2,1.85225,SC,L,0.689223419
Human,3,1,1,21,Visual,OTHER,0.3;0.6;1.2;2.4,1.2,0.770967742,SC,S,1.943468039
Human,3,1,1,22,Visual,OTHER,0.3;0.6;1.2;2.4,2.4,3.71225,SC,L,1.027494408
Human,3,1,1,23,Visual,OTHER,0.3;0.6;1.2;2.4,1.2,1.7925,SC,L,0.586675485
Human,3,1,1,24,Visual,OTHER,0.3;0.6;1.2;2.4,2.4,3.5925,SC,L,0.580584037
Human,3,1,1,25,Visual,OTHER,0.3;0.6;1.2;2.4,0.3,0.4425,SC,L,1.859065256
Human,3,1,1,26,Visual,OTHER,0.3;0.6;1.2;2.4,0.3,0.42775,SC,L,1.418640557
Human,3,1,1,27,Visual,OTHER,0.3;0.6;1.2;2.4,2.4,3.47275,SC,L,0.711350952
Human,3,1,1,28,Visual,OTHER,0.3;0.6;1.2;2.4,1.2,0.824137931,SC,S,1.973652705
Human,3,1,1,29,Visual,OTHER,0.3;0.6;1.2;2.4,2.4,1.710714286,SC,L,1.836369328
Human,3,1,1,30,Visual,OTHER,0.3;0.6;1.2;2.4,1.2,0.824137931,SC,S,1.388036311
Human,3,1,1,31,Visual,OTHER,0.3;0.6;1.2;2.4,0.6,0.86275,SC,L,0.98623707
Human,3,1,1,32,Visual,OTHER,0.3;0.6;1.2;2.4,2.4,3.47275,SC,L,0.95500587
Human,3,1,1,33,Visual,OTHER,0.3;0.6;1.2;2.4,0.6,0.833,SC,L,0.354522176
Human,3,1,1,34,Visual,OTHER,0.3;0.6;1.2;2.4,0.3,0.210714286,SC,S,0.835942504
Human,3,1,1,35,Visual,OTHER,0.3;0.6;1.2;2.4,0.3,0.210714286,SC,S,1.175729714
Human,3,1,1,36,Visual,OTHER,0.3;0.6;1.2;2.4,1.2,0.885185185,SC,L,0.473950787
Human,3,1,1,37,Visual,OTHER,0.3;0.6;1.2;2.4,0.3,0.210714286,SC,S,0.758041995
Human,3,1,1,38,Visual,OTHER,0.3;0.6;1.2;2.4,0.3,0.210714286,SC,L,1.111047467
Human,3,1,1,39,Visual,OTHER,0.3;0.6;1.2;2.4,0.3,0.203448276,SC,S,0.828038714
Human,3,1,1,40,Visual,OTHER,0.3;0.6;1.2;2.4,0.3,0.203448276,SC,S,2.974818774
Human,3,1,1,41,Visual,OTHER,0.3;0.6;1.2;2.4,0.3,0.42775,SC,L,0.708833778
Human,3,1,1,42,Visual,OTHER,0.3;0.6;1.2;2.4,0.6,0.833,SC,L,0.51136188
Human,3,1,1,43,Visual,OTHER,0.3;0.6;1.2;2.4,2.4,1.710714286,SC,S,0.894881342
Human,3,1,1,44,Visual,OTHER,0.3;0.6;1.2;2.4,0.3,0.210714286,SC,S,0.829011897
Human,3,1,1,45,Visual,OTHER,0.3;0.6;1.2;2.4,1.2,0.885185185,SC,L,1.372870174
Human,3,1,1,46,Visual,OTHER,0.3;0.6;1.2;2.4,1.2,1.673,SC,L,0.246283658
Human,3,1,1,47,Visual,OTHER,0.3;0.6;1.2;2.4,0.3,0.210714286,SC,S,2.037278457
Human,3,1,1,48,Visual,OTHER,0.3;0.6;1.2;2.4,0.6,0.425,SC,S,1.064341331
Human,3,1,1,49,Visual,OTHER,0.3;0.6;1.2;2.4,0.3,0.39825,SC,S,1.597614133
Human,3,1,1,50,Visual,OTHER,0.3;0.6;1.2;2.4,2.4,3.353,SC,L,0.84776257
Human,3,1,1,51,Visual,OTHER,0.3;0.6;1.2;2.4,1.2,0.853571429,SC,S,1.122477837
Human,3,1,1,52,Visual,OTHER,0.3;0.6;1.2;2.4,0.6,0.833,SC,S,0.929858572
Human,3,1,1,53,Visual,OTHER,0.3;0.6;1.2;2.4,2.4,1.651724138,SC,S,0.992074658
Human,3,1,1,54,Visual,OTHER,0.3;0.6;1.2;2.4,2.4,3.47275,SC,L,0.919849942
Human,3,1,1,55,Visual,OTHER,0.3;0.6;1.2;2.4,0.6,0.410344828,SC,L,2.210684304
Human,3,1,1,56,Visual,OTHER,0.3;0.6;1.2;2.4,1.2,1.7925,SC,L,0.31373845
Human,3,1,1,57,Visual,OTHER,0.3;0.6;1.2;2.4,0.6,0.8925,SC,S,1.872326683
Human,3,1,1,58,Visual,OTHER,0.3;0.6;1.2;2.4,0.6,0.92225,SC,L,1.032312327
Human,3,1,1,59,Visual,OTHER,0.3;0.6;1.2;2.4,0.3,0.190322581,SC,S,1.077590081
Human,3,1,1,60,Visual,OTHER,0.3;0.6;1.2;2.4,2.4,3.71225,SC,L,1.136919822
Human,3,1,1,61,Visual,OTHER,0.3;0.6;1.2;2.4,0.3,0.4425,SC,L,0.588872089
Human,3,1,1,62,Visual,OTHER,0.3;0.6;1.2;2.4,2.4,1.596666667,SC,S,1.354146668
Human,3,1,1,63,Visual,OTHER,0.3;0.6;1.2;2.4,0.3,0.4425,SC,L,1.228996985
Human,3,1,1,64,Visual,OTHER,0.3;0.6;1.2;2.4,1.2,0.824137931,SC,S,0.967477039
Human,3,1,1,65,Visual,OTHER,0.3;0.6;1.2;2.4,0.6,0.410344828,SC,L,1.608754722
Human,3,1,1,66,Visual,OTHER,0.3;0.6;1.2;2.4,2.4,1.596666667,SC,L,0.261194727
Human,3,1,1,67,Visual,OTHER,0.3;0.6;1.2;2.4,0.3,0.45725,SC,S,1.086520784
Human,3,1,1,68,Visual,OTHER,0.3;0.6;1.2;2.4,2.4,1.496875,SC,L,0.743116739
Human,3,1,1,69,Visual,OTHER,0.3;0.6;1.2;2.4,0.3,0.48675,SC,L,1.027958963
Human,3,1,1,70,Visual,OTHER,0.3;0.6;1.2;2.4,2.4,1.451515152,SC,L,0.985398515
Human,3,1,1,71,Visual,OTHER,0.3;0.6;1.2;2.4,2.4,4.0715,SC,L,0.818111283
Human,3,1,1,72,Visual,OTHER,0.3;0.6;1.2;2.4,0.6,1.0115,SC,L,0.648418563
Human,3,1,1,73,Visual,OTHER,0.3;0.6;1.2;2.4,1.2,0.702941176,SC,S,1.218323065
Human,3,1,1,74,Visual,OTHER,0.3;0.6;1.2;2.4,1.2,1.97175,SC,L,0.972754684
Human,3,1,1,75,Visual,OTHER,0.3;0.6;1.2;2.4,0.6,0.98175,SC,L,0.83543267
Human,3,1,1,76,Visual,OTHER,0.3;0.6;1.2;2.4,2.4,1.451515152,SC,S,1.099582685
Human,3,1,1,77,Visual,OTHER,0.3;0.6;1.2;2.4,0.3,0.472,SC,L,1.024541353
Human,3,1,1,78,Visual,OTHER,0.3;0.6;1.2;2.4,0.6,0.371875,SC,S,1.051673352
Human,3,1,1,79,Visual,OTHER,0.3;0.6;1.2;2.4,2.4,1.496875,SC,S,0.95508888
Human,3,1,1,80,Visual,OTHER,0.3;0.6;1.2;2.4,0.3,0.190322581,SC,S,1.472497654
Human,3,1,1,81,Visual,OTHER,0.3;0.6;1.2;2.4,1.2,1.85225,SC,L,1.166503192
Human,3,1,1,82,Visual,OTHER,0.3;0.6;1.2;2.4,0.6,0.383870968,SC,S,1.088046966
Human,3,1,1,83,Visual,OTHER,0.3;0.6;1.2;2.4,0.6,0.396666667,SC,S,1.007879219
Human,3,1,1,84,Visual,OTHER,0.3;0.6;1.2;2.4,2.4,1.596666667,SC,S,1.163095844
Human,3,1,1,85,Visual,OTHER,0.3;0.6;1.2;2.4,2.4,3.5925,SC,L,2.060137387
Human,3,1,1,86,Visual,OTHER,0.3;0.6;1.2;2.4,0.6,0.410344828,SC,S,1.202157786
Human,3,1,1,87,Visual,OTHER,0.3;0.6;1.2;2.4,0.6,0.86275,SC,L,3.566175558
Human,3,1,1,88,Visual,OTHER,0.3;0.6;1.2;2.4,0.6,0.410344828,SC,S,1.102878043
Human,3,1,1,89,Visual,OTHER,0.3;0.6;1.2;2.4,1.2,1.673,SC,L,0.871326635
Human,3,1,1,90,Visual,OTHER,0.3;0.6;1.2;2.4,1.2,1.673,SC,L,0.943747255
Human,3,1,1,91,Visual,OTHER,0.3;0.6;1.2;2.4,2.4,3.353,SC,L,1.120436991
Human,3,1,1,92,Visual,OTHER,0.3;0.6;1.2;2.4,0.6,0.80325,SC,S,1.902100524
Human,3,1,1,93,Visual,OTHER,0.3;0.6;1.2;2.4,1.2,0.853571429,SC,S,2.134177765
Human,3,1,1,94,Visual,OTHER,0.3;0.6;1.2;2.4,2.4,1.710714286,SC,L,1.635330401
Human,3,1,1,95,Visual,OTHER,0.3;0.6;1.2;2.4,2.4,1.651724138,SC,S,1.786443901
Human,3,1,1,96,Visual,OTHER,0.3;0.6;1.2;2.4,0.3,0.42775,SC,S,1.343428073
Human,3,1,1,97,Visual,OTHER,0.3;0.6;1.2;2.4,0.3,0.196666667,SC,S,1.291241143
Human,3,1,1,98,Visual,OTHER,0.3;0.6;1.2;2.4,2.4,1.596666667,SC,S,1.569914041
Human,3,1,1,99,Visual,OTHER,0.3;0.6;1.2;2.4,1.2,1.7925,SC,L,1.124288066
Human,3,1,1,100,Visual,OTHER,0.3;0.6;1.2;2.4,2.4,3.47275,SC,L,1.816194499
Human,3,1,1,101,Visual,OTHER,0.3;0.6;1.2;2.4,1.2,1.73275,SC,L,1.468395737
Human,3,1,1,102,Visual,OTHER,0.3;0.6;1.2;2.4,0.3,0.203448276,SC,S,1.207900591
Human,3,1,1,103,Visual,OTHER,0.3;0.6;1.2;2.4,1.2,0.853571429,SC,S,1.061279005
Human,3,1,1,104,Visual,OTHER,0.3;0.6;1.2;2.4,2.4,3.353,SC,L,1.199699473
Human,3,1,1,105,Visual,OTHER,0.3;0.6;1.2;2.4,2.4,1.710714286,SC,L,1.51079258
Human,3,1,1,106,Visual,OTHER,0.3;0.6;1.2;2.4,1.2,0.824137931,SC,S,1.152993639
Human,3,1,1,107,Visual,OTHER,0.3;0.6;1.2;2.4,0.3,0.42775,SC,S,0.951441557
Human,3,1,1,108,Visual,OTHER,0.3;0.6;1.2;2.4,1.2,1.7925,SC,S,1.232803084
Human,3,1,1,109,Visual,OTHER,0.3;0.6;1.2;2.4,1.2,1.85225,SC,L,0.455662557
Human,3,1,1,110,Visual,OTHER,0.3;0.6;1.2;2.4,1.2,1.85225,SC,L,0.905055691
Human,3,1,1,111,Visual,OTHER,0.3;0.6;1.2;2.4,1.2,1.85225,SC,L,1.324734148
Human,3,1,1,112,Visual,OTHER,0.3;0.6;1.2;2.4,0.6,0.396666667,SC,S,1.891707027
Human,3,1,1,113,Visual,OTHER,0.3;0.6;1.2;2.4,0.6,0.8925,SC,L,0.920725323
Human,3,1,1,114,Visual,OTHER,0.3;0.6;1.2;2.4,0.3,0.4425,SC,S,1.219581501
Human,3,1,1,115,Visual,OTHER,0.3;0.6;1.2;2.4,2.4,3.71225,SC,L,0.900798318
Human,3,1,1,116,Visual,OTHER,0.3;0.6;1.2;2.4,1.2,0.770967742,SC,S,0.963478658
Human,3,1,1,117,Visual,OTHER,0.3;0.6;1.2;2.4,1.2,1.85225,SC,L,0.997938507
Human,3,1,1,118,Visual,OTHER,0.3;0.6;1.2;2.4,2.4,3.5925,SC,L,0.918935621
Human,3,1,1,119,Visual,OTHER,0.3;0.6;1.2;2.4,0.6,0.8925,SC,L,0.918938036
Human,3,1,1,120,Visual,OTHER,0.3;0.6;1.2;2.4,0.3,0.196666667,SC,S,1.907755489
Human,3,1,1,121,Visual,OTHER,0.3;0.6;1.2;2.4,2.4,1.651724138,SC,L,0.656118299
Human,3,1,1,122,Visual,OTHER,0.3;0.6;1.2;2.4,0.3,0.4425,SC,L,0.977219432
Human,3,1,1,123,Visual,OTHER,0.3;0.6;1.2;2.4,0.6,0.8925,SC,L,0.856018928
Human,3,1,1,124,Visual,OTHER,0.3;0.6;1.2;2.4,0.6,0.396666667,SC,S,1.246816735
Human,3,1,1,125,Visual,OTHER,0.3;0.6;1.2;2.4,1.2,1.73275,SC,L,0.979182098
Human,3,1,1,126,Visual,OTHER,0.3;0.6;1.2;2.4,0.3,0.203448276,SC,S,1.116473625
Human,3,1,1,127,Visual,OTHER,0.3;0.6;1.2;2.4,0.6,0.86275,SC,L,0.996079981
Human,3,1,1,128,Visual,OTHER,0.3;0.6;1.2;2.4,0.3,0.210714286,SC,S,1.192245447
Human,3,1,1,129,Visual,OTHER,0.3;0.6;1.2;2.4,2.4,3.353,SC,L,0.831339204
Human,3,1,1,130,Visual,OTHER,0.3;0.6;1.2;2.4,2.4,3.353,SC,L,1.002941162
Human,3,1,1,131,Visual,OTHER,0.3;0.6;1.2;2.4,0.6,0.440740741,SC,S,1.781482299
Human,3,1,1,132,Visual,OTHER,0.3;0.6;1.2;2.4,0.3,0.218518519,SC,S,0.891617678
Human,3,1,1,133,Visual,OTHER,0.3;0.6;1.2;2.4,1.2,0.885185185,SC,L,1.151896997
Human,3,1,1,134,Visual,OTHER,0.3;0.6;1.2;2.4,1.2,0.853571429,SC,S,0.986691363
Human,3,1,1,135,Visual,OTHER,0.3;0.6;1.2;2.4,1.2,0.853571429,SC,L,1.207955226
Human,3,1,1,136,Visual,OTHER,0.3;0.6;1.2;2.4,0.3,0.42775,SC,S,1.125631626
Human,3,1,1,137,Visual,OTHER,0.3;0.6;1.2;2.4,0.3,0.4425,SC,S,0.997788484
Human,3,1,1,138,Visual,OTHER,0.3;0.6;1.2;2.4,0.3,0.45725,SC,L,1.005477655
Human,3,1,1,139,Visual,OTHER,0.3;0.6;1.2;2.4,2.4,1.54516129,SC,L,1.266325972
Human,3,1,1,140,Visual,OTHER,0.3;0.6;1.2;2.4,0.6,0.371875,SC,S,1.030756562
Human,3,1,1,141,Visual,OTHER,0.3;0.6;1.2;2.4,0.3,0.184375,SC,S,0.891280807
Human,3,1,1,142,Visual,OTHER,0.3;0.6;1.2;2.4,1.2,1.912,SC,L,1.149636098
Human,3,1,1,143,Visual,OTHER,0.3;0.6;1.2;2.4,1.2,0.770967742,SC,S,1.057926897
Human,3,1,1,144,Visual,OTHER,0.3;0.6;1.2;2.4,0.6,0.92225,SC,L,0.573819148
Human,3,1,1,145,Visual,OTHER,0.3;0.6;1.2;2.4,0.6,0.92225,SC,S,0.699447876
Human,3,1,1,146,Visual,OTHER,0.3;0.6;1.2;2.4,0.6,0.371875,SC,S,0.722583306
Human,3,1,1,147,Visual,OTHER,0.3;0.6;1.2;2.4,0.6,0.371875,SC,S,0.698947701
Human,3,1,1,148,Visual,OTHER,0.3;0.6;1.2;2.4,1.2,0.746875,SC,L,1.377696545
Human,3,1,1,149,Visual,OTHER,0.3;0.6;1.2;2.4,2.4,1.451515152,SC,L,1.34012396
Human,3,1,1,150,Visual,OTHER,0.3;0.6;1.2;2.4,0.3,0.173529412,SC,S,1.44050125
Human,3,1,1,151,Visual,OTHER,0.3;0.6;1.2;2.4,2.4,1.408823529,SC,S,0.972647223
Human,3,1,1,152,Visual,OTHER,0.3;0.6;1.2;2.4,1.2,0.702941176,SC,S,2.62185375
Human,3,1,1,153,Visual,OTHER,0.3;0.6;1.2;2.4,0.3,0.178787879,SC,S,1.161667161
Human,3,1,1,154,Visual,OTHER,0.3;0.6;1.2;2.4,0.6,0.98175,SC,L,3.433414885
Human,3,1,1,155,Visual,OTHER,0.3;0.6;1.2;2.4,1.2,1.97175,SC,L,1.089142099
Human,3,1,1,156,Visual,OTHER,0.3;0.6;1.2;2.4,2.4,1.496875,SC,S,6.436199504
Human,3,1,1,157,Visual,OTHER,0.3;0.6;1.2;2.4,1.2,0.746875,SC,S,1.805695052
Human,3,1,1,158,Visual,OTHER,0.3;0.6;1.2;2.4,1.2,1.912,SC,L,1.706791724
Human,3,1,1,159,Visual,OTHER,0.3;0.6;1.2;2.4,1.2,1.85225,SC,L,1.158294226
Human,3,1,1,160,Visual,OTHER,0.3;0.6;1.2;2.4,0.3,0.45725,SC,S,2.870207958
Human,3,1,1,161,Visual,OTHER,0.3;0.6;1.2;2.4,1.2,0.746875,SC,L,1.171104077
Human,3,1,1,162,Visual,OTHER,0.3;0.6;1.2;2.4,0.6,0.360606061,SC,S,0.971242991
Human,3,1,1,163,Visual,OTHER,0.3;0.6;1.2;2.4,0.3,0.178787879,SC,S,2.341861744
Human,3,1,1,164,Visual,OTHER,0.3;0.6;1.2;2.4,0.3,0.48675,SC,S,2.387260844
Human,3,1,1,165,Visual,OTHER,0.3;0.6;1.2;2.4,0.6,1.0115,SC,L,0.31760824
Human,3,1,1,166,Visual,OTHER,0.3;0.6;1.2;2.4,2.4,4.0715,SC,L,0.303315976
Human,3,1,1,167,Visual,OTHER,0.3;0.6;1.2;2.4,0.3,0.5015,SC,S,1.381392467
Human,3,1,1,168,Visual,OTHER,0.3;0.6;1.2;2.4,0.3,0.51625,SC,L,1.179234862
Human,3,1,1,169,Visual,OTHER,0.3;0.6;1.2;2.4,0.6,0.34,SC,S,9.3673927
Human,3,1,1,170,Visual,OTHER,0.3;0.6;1.2;2.4,2.4,1.368571429,SC,L,51.0396275
Human,3,1,1,171,Visual,OTHER,0.3;0.6;1.2;2.4,1.2,2.151,SC,L,0.871125297
Human,3,1,1,172,Visual,OTHER,0.3;0.6;1.2;2.4,1.2,2.151,SC,L,0.987997492
Human,3,1,1,173,Visual,OTHER,0.3;0.6;1.2;2.4,1.2,0.663888889,SC,L,1.263067742
Human,3,1,1,174,Visual,OTHER,0.3;0.6;1.2;2.4,2.4,4.43075,SC,L,0.946129199
Human,3,1,1,175,Visual,OTHER,0.3;0.6;1.2;2.4,0.3,0.54575,SC,L,0.296422497
Human,3,1,1,176,Visual,OTHER,0.3;0.6;1.2;2.4,0.6,0.321621622,SC,S,1.176937137
Human,3,1,1,177,Visual,OTHER,0.3;0.6;1.2;2.4,1.2,0.663888889,SC,L,0.853526203
Human,3,1,1,178,Visual,OTHER,0.3;0.6;1.2;2.4,0.3,0.159459459,SC,S,0.786299614
Human,3,1,1,179,Visual,OTHER,0.3;0.6;1.2;2.4,0.6,1.10075,SC,L,0.887181305
Human,3,1,1,180,Visual,OTHER,0.3;0.6;1.2;2.4,2.4,4.43075,SC,L,0.918353945
Human,3,1,1,181,Visual,OTHER,0.3;0.6;1.2;2.4,0.3,0.163888889,SC,S,1.053060078
Human,3,1,1,182,Visual,OTHER,0.3;0.6;1.2;2.4,1.2,2.151,SC,L,1.916863683
Human,3,1,1,183,Visual,OTHER,0.3;0.6;1.2;2.4,2.4,4.311,SC,S,1.039808008
Human,3,1,1,184,Visual,OTHER,0.3;0.6;1.2;2.4,0.3,0.159459459,SC,S,0.83555643
Human,3,1,1,185,Visual,OTHER,0.3;0.6;1.2;2.4,0.6,0.321621622,SC,S,0.898883949
Human,3,1,1,186,Visual,OTHER,0.3;0.6;1.2;2.4,2.4,4.43075,SC,L,0.65982237
Human,3,1,1,187,Visual,OTHER,0.3;0.6;1.2;2.4,0.6,0.330555556,SC,S,3.170190661
Human,3,1,1,188,Visual,OTHER,0.3;0.6;1.2;2.4,2.4,1.330555556,SC,S,1.296340694
Human,3,1,1,189,Visual,OTHER,0.3;0.6;1.2;2.4,2.4,1.330555556,SC,S,1.015250536
Human,3,1,1,190,Visual,OTHER,0.3;0.6;1.2;2.4,0.6,1.04125,SC,L,1.860284451
Human,3,1,1,191,Visual,OTHER,0.3;0.6;1.2;2.4,0.6,0.34,SC,S,1.295415506
Human,3,1,1,192,Visual,OTHER,0.3;0.6;1.2;2.4,0.3,0.51625,SC,S,1.061750202
Human,3,1,1,193,Visual,OTHER,0.3;0.6;1.2;2.4,0.6,0.330555556,SC,S,0.955321611
Human,3,1,1,194,Visual,OTHER,0.3;0.6;1.2;2.4,0.3,0.163888889,SC,S,1.035957234
Human,3,1,1,195,Visual,OTHER,0.3;0.6;1.2;2.4,2.4,4.311,SC,L,0.943192746
Human,3,1,1,196,Visual,OTHER,0.3;0.6;1.2;2.4,2.4,4.19125,SC,S,1.065070615
Human,3,1,1,197,Visual,OTHER,0.3;0.6;1.2;2.4,0.6,1.071,SC,L,0.806992729
Human,3,1,1,198,Visual,OTHER,0.3;0.6;1.2;2.4,0.3,0.163888889,SC,S,1.065738621
Human,3,1,1,199,Visual,OTHER,0.3;0.6;1.2;2.4,0.6,0.330555556,SC,S,1.211289223
Human,3,1,1,200,Visual,OTHER,0.3;0.6;1.2;2.4,1.2,0.682857143,SC,L,2.607960841
Human,4,1,1,1,Visual,OTHER,0.3;0.6;1.2;2.4,0.3,0.470588235,SC,L,0.671243344
Human,4,1,1,2,Visual,OTHER,0.3;0.6;1.2;2.4,2.4,1.496323529,SC,S,1.3801321
Human,4,1,1,3,Visual,OTHER,0.3;0.6;1.2;2.4,0.6,0.950588235,SC,L,0.515554124
Human,4,1,1,4,Visual,OTHER,0.3;0.6;1.2;2.4,0.6,0.383301708,SC,S,0.844953314
Human,4,1,1,5,Visual,OTHER,0.3;0.6;1.2;2.4,2.4,3.710882353,SC,L,0.621075992
Human,4,1,1,6,Visual,OTHER,0.3;0.6;1.2;2.4,0.3,0.189753321,SC,S,1.046520451
Human,4,1,1,7,Visual,OTHER,0.3;0.6;1.2;2.4,0.3,0.441176471,SC,L,0.614378922
Human,4,1,1,8,Visual,OTHER,0.3;0.6;1.2;2.4,2.4,3.591176471,SC,L,0.612747972
Human,4,1,1,9,Visual,OTHER,0.3;0.6;1.2;2.4,1.2,1.791176471,SC,L,0.502846112
Human,4,1,1,10,Visual,OTHER,0.3;0.6;1.2;2.4,0.6,0.861470588,SC,L,0.581400999
Human,4,1,1,11,Visual,OTHER,0.3;0.6;1.2;2.4,0.3,0.202839757,SC,S,1.006981295
Human,4,1,1,12,Visual,OTHER,0.3;0.6;1.2;2.4,0.3,0.426470588,SC,L,0.510369676
Human,4,1,1,13,Visual,OTHER,0.3;0.6;1.2;2.4,1.2,0.852941176,SC,S,0.927697416
Human,4,1,1,14,Visual,OTHER,0.3;0.6;1.2;2.4,0.6,0.424369748,SC,S,1.320878455
Human,4,1,1,15,Visual,OTHER,0.3;0.6;1.2;2.4,1.2,0.852941176,SC,S,1.025436121
Human,4,1,1,16,Visual,OTHER,0.3;0.6;1.2;2.4,1.2,0.88453159,SC,S,0.659725265
Human,4,1,1,17,Visual,OTHER,0.3;0.6;1.2;2.4,0.3,0.397058824,SC,L,0.507245423
Human,4,1,1,18,Visual,OTHER,0.3;0.6;1.2;2.4,1.2,1.612058824,SC,L,0.56445487
Human,4,1,1,19,Visual,OTHER,0.3;0.6;1.2;2.4,2.4,1.841628959,SC,S,0.892089083
Human,4,1,1,20,Visual,OTHER,0.3;0.6;1.2;2.4,0.3,0.226244344,SC,S,1.473705436
Human,4,1,1,21,Visual,OTHER,0.3;0.6;1.2;2.4,0.3,0.226244344,SC,S,0.827325283
Human,4,1,1,22,Visual,OTHER,0.3;0.6;1.2;2.4,2.4,1.915294118,SC,S,0.737730766
Human,4,1,1,23,Visual,OTHER,0.3;0.6;1.2;2.4,0.6,0.742647059,SC,S,1.194346816
Human,4,1,1,24,Visual,OTHER,0.3;0.6;1.2;2.4,2.4,3.112352941,SC,L,0.522149166
Human,4,1,1,25,Visual,OTHER,0.3;0.6;1.2;2.4,1.2,0.918552036,SC,S,0.665648063
Human,4,1,1,26,Visual,OTHER,0.3;0.6;1.2;2.4,0.6,0.457013575,SC,S,0.628647853
Human,4,1,1,27,Visual,OTHER,0.3;0.6;1.2;2.4,0.3,0.235294118,SC,S,0.731267034
Human,4,1,1,28,Visual,OTHER,0.3;0.6;1.2;2.4,2.4,1.915294118,SC,S,0.818008368
Human,4,1,1,29,Visual,OTHER,0.3;0.6;1.2;2.4,0.3,0.367647059,SC,S,0.850171269
Human,4,1,1,30,Visual,OTHER,0.3;0.6;1.2;2.4,0.6,0.457013575,SC,L,0.484225565
Human,4,1,1,31,Visual,OTHER,0.3;0.6;1.2;2.4,1.2,1.612058824,SC,L,0.563941708
Human,4,1,1,32,Visual,OTHER,0.3;0.6;1.2;2.4,0.6,0.440087146,SC,S,0.776392716
Human,4,1,1,33,Visual,OTHER,0.3;0.6;1.2;2.4,1.2,0.88453159,SC,S,0.911107482
Human,4,1,1,34,Visual,OTHER,0.3;0.6;1.2;2.4,1.2,1.552352941,SC,L,1.230171885
Human,4,1,1,35,Visual,OTHER,0.3;0.6;1.2;2.4,0.3,0.382352941,SC,S,1.093164189
Human,4,1,1,36,Visual,OTHER,0.3;0.6;1.2;2.4,0.3,0.217864924,SC,S,0.643724864
Human,4,1,1,37,Visual,OTHER,0.3;0.6;1.2;2.4,0.6,0.440087146,SC,S,0.768464056
Human,4,1,1,38,Visual,OTHER,0.3;0.6;1.2;2.4,2.4,1.773420479,SC,L,0.974929177
Human,4,1,1,39,Visual,OTHER,0.3;0.6;1.2;2.4,1.2,1.671764706,SC,L,0.488189593
Human,4,1,1,40,Visual,OTHER,0.3;0.6;1.2;2.4,1.2,0.852941176,SC,L,1.635036422
Human,4,1,1,41,Visual,OTHER,0.3;0.6;1.2;2.4,0.6,0.409736308,SC,S,0.580391579
Human,4,1,1,42,Visual,OTHER,0.3;0.6;1.2;2.4,0.3,0.202839757,SC,L,0.577510021
Human,4,1,1,43,Visual,OTHER,0.3;0.6;1.2;2.4,2.4,3.591176471,SC,L,0.276217939
Human,4,1,1,44,Visual,OTHER,0.3;0.6;1.2;2.4,1.2,1.791176471,SC,L,0.620967021
Human,4,1,1,45,Visual,OTHER,0.3;0.6;1.2;2.4,1.2,1.791176471,SC,L,1.269776545
Human,4,1,1,46,Visual,OTHER,0.3;0.6;1.2;2.4,2.4,1.651115619,SC,S,0.817221419
Human,4,1,1,47,Visual,OTHER,0.3;0.6;1.2;2.4,0.6,0.861470588,SC,L,0.617676141
Human,4,1,1,48,Visual,OTHER,0.3;0.6;1.2;2.4,2.4,3.471470588,SC,L,0.477465708
Human,4,1,1,49,Visual,OTHER,0.3;0.6;1.2;2.4,1.2,0.852941176,SC,S,0.754569734
Human,4,1,1,50,Visual,OTHER,0.3;0.6;1.2;2.4,0.6,0.424369748,SC,S,0.806846786
Human,4,1,1,51,Visual,OTHER,0.3;0.6;1.2;2.4,1.2,0.852941176,SC,S,0.644590297
Human,4,1,1,52,Visual,OTHER,0.3;0.6;1.2;2.4,2.4,1.773420479,SC,S,0.792178494
Human,4,1,1,53,Visual,OTHER,0.3;0.6;1.2;2.4,1.2,1.612058824,SC,L,0.503885417
Human,4,1,1,54,Visual,OTHER,0.3;0.6;1.2;2.4,0.6,0.440087146,SC,S,0.753306147
Human,4,1,1,55,Visual,OTHER,0.3;0.6;1.2;2.4,0.6,0.457013575,SC,L,0.28562028
Human,4,1,1,56,Visual,OTHER,0.3;0.6;1.2;2.4,1.2,1.612058824,SC,L,0.500442702
Human,4,1,1,57,Visual,OTHER,0.3;0.6;1.2;2.4,2.4,1.773420479,SC,S,0.878502658
Human,4,1,1,58,Visual,OTHER,0.3;0.6;1.2;2.4,1.2,0.88453159,SC,S,0.637960843
Human,4,1,1,59,Visual,OTHER,0.3;0.6;1.2;2.4,0.6,0.457013575,SC,S,0.877872978
Human,4,1,1,60,Visual,OTHER,0.3;0.6;1.2;2.4,0.3,0.226244344,SC,L,0.570562407
Human,4,1,1,61,Visual,OTHER,0.3;0.6;1.2;2.4,0.6,0.802058824,SC,L,1.041324834
Human,4,1,1,62,Visual,OTHER,0.3;0.6;1.2;2.4,2.4,3.232058824,SC,L,0.6255722
Human,4,1,1,63,Visual,OTHER,0.3;0.6;1.2;2.4,0.3,0.397058824,SC,L,0.529855656
Human,4,1,1,64,Visual,OTHER,0.3;0.6;1.2;2.4,2.4,1.841628959,SC,S,0.657493914
Human,4,1,1,65,Visual,OTHER,0.3;0.6;1.2;2.4,0.6,0.457013575,SC,S,0.812219596
Human,4,1,1,66,Visual,OTHER,0.3;0.6;1.2;2.4,2.4,1.841628959,SC,S,0.690799054
Human,4,1,1,67,Visual,OTHER,0.3;0.6;1.2;2.4,0.3,0.235294118,SC,S,0.799545392
Human,4,1,1,68,Visual,OTHER,0.3;0.6;1.2;2.4,1.2,1.492647059,SC,L,0.750094657
Human,4,1,1,69,Visual,OTHER,0.3;0.6;1.2;2.4,1.2,1.492647059,SC,L,0.50584781
Human,4,1,1,70,Visual,OTHER,0.3;0.6;1.2;2.4,2.4,1.995098039,SC,S,0.651077272
Human,4,1,1,71,Visual,OTHER,0.3;0.6;1.2;2.4,2.4,1.995098039,SC,L,1.049663118
Human,4,1,1,72,Visual,OTHER,0.3;0.6;1.2;2.4,0.6,0.475294118,SC,S,0.671598331
Human,4,1,1,73,Visual,OTHER,0.3;0.6;1.2;2.4,0.6,0.475294118,SC,S,0.451927431
Human,4,1,1,74,Visual,OTHER,0.3;0.6;1.2;2.4,1.2,0.955294118,SC,S,0.58905889
Human,4,1,1,75,Visual,OTHER,0.3;0.6;1.2;2.4,1.2,1.432941176,SC,L,0.56405732
Human,4,1,1,76,Visual,OTHER,0.3;0.6;1.2;2.4,0.6,0.495098039,SC,S,0.811489396
Human,4,1,1,77,Visual,OTHER,0.3;0.6;1.2;2.4,2.4,2.872941176,SC,S,0.546886306
Human,4,1,1,78,Visual,OTHER,0.3;0.6;1.2;2.4,2.4,1.915294118,SC,S,0.722592477
Human,4,1,1,79,Visual,OTHER,0.3;0.6;1.2;2.4,0.3,0.235294118,SC,L,0.464153976
Human,4,1,1,80,Visual,OTHER,0.3;0.6;1.2;2.4,0.3,0.382352941,SC,L,0.404659749
Human,4,1,1,81,Visual,OTHER,0.3;0.6;1.2;2.4,0.3,0.382352941,SC,L,0.335528635
Human,4,1,1,82,Visual,OTHER,0.3;0.6;1.2;2.4,0.3,0.226244344,SC,S,0.553440596
Human,4,1,1,83,Visual,OTHER,0.3;0.6;1.2;2.4,0.3,0.367647059,SC,L,0.456040578
Human,4,1,1,84,Visual,OTHER,0.3;0.6;1.2;2.4,2.4,2.992647059,SC,L,0.502838566
Human,4,1,1,85,Visual,OTHER,0.3;0.6;1.2;2.4,0.3,0.235294118,SC,S,0.582120936
Human,4,1,1,86,Visual,OTHER,0.3;0.6;1.2;2.4,0.3,0.352941176,SC,L,1.033244037
Human,4,1,1,87,Visual,OTHER,0.3;0.6;1.2;2.4,1.2,1.432941176,SC,L,0.547010974
Human,4,1,1,88,Visual,OTHER,0.3;0.6;1.2;2.4,0.6,0.495098039,SC,S,1.515495262
Human,4,1,1,89,Visual,OTHER,0.3;0.6;1.2;2.4,2.4,2.753235294,SC,L,0.528132638
Human,4,1,1,90,Visual,OTHER,0.3;0.6;1.2;2.4,2.4,2.753235294,SC,L,0.39933403
Human,4,1,1,91,Visual,OTHER,0.3;0.6;1.2;2.4,0.6,0.683235294,SC,L,0.502871771
Human,4,1,1,92,Visual,OTHER,0.3;0.6;1.2;2.4,0.6,0.653529412,SC,L,0.42321932
Human,4,1,1,93,Visual,OTHER,0.3;0.6;1.2;2.4,0.3,0.267379679,SC,S,0.667874886
Human,4,1,1,94,Visual,OTHER,0.3;0.6;1.2;2.4,0.3,0.267379679,SC,S,0.882262025
Human,4,1,1,95,Visual,OTHER,0.3;0.6;1.2;2.4,2.4,2.513823529,SC,L,0.593703613
Human,4,1,1,96,Visual,OTHER,0.3;0.6;1.2;2.4,2.4,2.513823529,SC,L,0.502406906
Human,4,1,1,97,Visual,OTHER,0.3;0.6;1.2;2.4,0.6,0.623823529,SC,S,0.540443704
Human,4,1,1,98,Visual,OTHER,0.3;0.6;1.2;2.4,1.2,1.085561497,SC,L,1.426632152
Human,4,1,1,99,Visual,OTHER,0.3;0.6;1.2;2.4,0.3,0.338235294,SC,L,0.390795612
Human,4,1,1,100,Visual,OTHER,0.3;0.6;1.2;2.4,0.3,0.338235294,SC,L,0.373441067
Human,4,1,1,101,Visual,OTHER,0.3;0.6;1.2;2.4,0.6,0.683235294,SC,L,0.784108866
Human,4,1,1,102,Visual,OTHER,0.3;0.6;1.2;2.4,2.4,2.633529412,SC,L,0.510927815
Human,4,1,1,103,Visual,OTHER,0.3;0.6;1.2;2.4,1.2,1.313529412,SC,L,0.555923094
Human,4,1,1,104,Visual,OTHER,0.3;0.6;1.2;2.4,2.4,2.633529412,SC,L,0.539910921
Human,4,1,1,105,Visual,OTHER,0.3;0.6;1.2;2.4,2.4,2.280112045,SC,L,0.695813857
Human,4,1,1,106,Visual,OTHER,0.3;0.6;1.2;2.4,1.2,1.313529412,SC,L,0.550604921
Human,4,1,1,107,Visual,OTHER,0.3;0.6;1.2;2.4,0.6,0.653529412,SC,L,0.531694588
Human,4,1,1,108,Visual,OTHER,0.3;0.6;1.2;2.4,0.3,0.267379679,SC,L,0.99975114
Human,4,1,1,109,Visual,OTHER,0.3;0.6;1.2;2.4,0.6,0.516624041,SC,S,0.63947105
Human,4,1,1,110,Visual,OTHER,0.3;0.6;1.2;2.4,1.2,1.038363171,SC,S,0.695771596
Human,4,1,1,111,Visual,OTHER,0.3;0.6;1.2;2.4,1.2,1.038363171,SC,S,0.669787774
Human,4,1,1,112,Visual,OTHER,0.3;0.6;1.2;2.4,0.3,0.323529412,SC,L,0.351209668
Human,4,1,1,113,Visual,OTHER,0.3;0.6;1.2;2.4,0.6,0.653529412,SC,L,0.496422528
Human,4,1,1,114,Visual,OTHER,0.3;0.6;1.2;2.4,0.6,0.540106952,SC,S,0.888004009
Human,4,1,1,115,Visual,OTHER,0.3;0.6;1.2;2.4,2.4,2.513823529,SC,L,0.464502625
Human,4,1,1,116,Visual,OTHER,0.3;0.6;1.2;2.4,0.3,0.280112045,SC,S,0.647415406
Human,4,1,1,117,Visual,OTHER,0.3;0.6;1.2;2.4,0.6,0.565826331,SC,S,0.582655832
Human,4,1,1,118,Visual,OTHER,0.3;0.6;1.2;2.4,0.3,0.308823529,SC,S,0.458946888
Human,4,1,1,119,Visual,OTHER,0.3;0.6;1.2;2.4,1.2,1.085561497,SC,L,0.83046161
Human,4,1,1,120,Visual,OTHER,0.3;0.6;1.2;2.4,1.2,1.038363171,SC,S,0.53288754
Human,4,1,1,121,Visual,OTHER,0.3;0.6;1.2;2.4,2.4,2.081841432,SC,S,0.894200595
Human,4,1,1,122,Visual,OTHER,0.3;0.6;1.2;2.4,0.6,0.683235294,SC,S,1.232602463
Human,4,1,1,123,Visual,OTHER,0.3;0.6;1.2;2.4,0.6,0.712941176,SC,L,0.645917878
Human,4,1,1,124,Visual,OTHER,0.3;0.6;1.2;2.4,2.4,1.995098039,SC,S,0.558999653
Human,4,1,1,125,Visual,OTHER,0.3;0.6;1.2;2.4,0.3,0.245098039,SC,S,0.545536689
Human,4,1,1,126,Visual,OTHER,0.3;0.6;1.2;2.4,2.4,2.081841432,SC,S,0.806591412
Human,4,1,1,127,Visual,OTHER,0.3;0.6;1.2;2.4,1.2,1.373235294,SC,S,2.755036108
Human,4,1,1,128,Visual,OTHER,0.3;0.6;1.2;2.4,1.2,1.432941176,SC,L,0.54527075
Human,4,1,1,129,Visual,OTHER,0.3;0.6;1.2;2.4,2.4,2.872941176,SC,L,0.593584076
Human,4,1,1,130,Visual,OTHER,0.3;0.6;1.2;2.4,0.6,0.712941176,SC,L,0.587632299
Human,4,1,1,131,Visual,OTHER,0.3;0.6;1.2;2.4,0.6,0.516624041,SC,L,0.476098583
Human,4,1,1,132,Visual,OTHER,0.3;0.6;1.2;2.4,1.2,0.995098039,SC,S,0.581064123
Human,4,1,1,133,Visual,OTHER,0.3;0.6;1.2;2.4,0.3,0.245098039,SC,S,0.609925579
Human,4,1,1,134,Visual,OTHER,0.3;0.6;1.2;2.4,0.6,0.495098039,SC,L,0.484636095
Human,4,1,1,135,Visual,OTHER,0.3;0.6;1.2;2.4,2.4,2.992647059,SC,L,0.504273307
Human,4,1,1,136,Visual,OTHER,0.3;0.6;1.2;2.4,0.6,0.742647059,SC,L,0.680463361
Human,4,1,1,137,Visual,OTHER,0.3;0.6;1.2;2.4,1.2,0.955294118,SC,L,0.688943217
Human,4,1,1,138,Visual,OTHER,0.3;0.6;1.2;2.4,0.3,0.382352941,SC,L,0.320250284
Human,4,1,1,139,Visual,OTHER,0.3;0.6;1.2;2.4,2.4,1.841628959,SC,S,0.498940645
Human,4,1,1,140,Visual,OTHER,0.3;0.6;1.2;2.4,0.3,0.382352941,SC,L,1.174013514
Human,4,1,1,141,Visual,OTHER,0.3;0.6;1.2;2.4,2.4,2.992647059,SC,L,0.462853261
Human,4,1,1,142,Visual,OTHER,0.3;0.6;1.2;2.4,2.4,1.915294118,SC,S,1.332515165
Human,4,1,1,143,Visual,OTHER,0.3;0.6;1.2;2.4,2.4,1.915294118,SC,S,0.624437205
Human,4,1,1,144,Visual,OTHER,0.3;0.6;1.2;2.4,0.6,0.712941176,SC,L,0.521907677
Human,4,1,1,145,Visual,OTHER,0.3;0.6;1.2;2.4,2.4,2.872941176,SC,L,1.009537145
Human,4,1,1,146,Visual,OTHER,0.3;0.6;1.2;2.4,2.4,2.872941176,SC,L,0.289464469
Human,4,1,1,147,Visual,OTHER,0.3;0.6;1.2;2.4,1.2,1.038363171,SC,S,0.659310509
Human,4,1,1,148,Visual,OTHER,0.3;0.6;1.2;2.4,0.3,0.338235294,SC,S,0.559438256
Human,4,1,1,149,Visual,OTHER,0.3;0.6;1.2;2.4,1.2,1.432941176,SC,L,0.476615972
Human,4,1,1,150,Visual,OTHER,0.3;0.6;1.2;2.4,1.2,0.995098039,SC,L,1.570722091
Human,4,1,1,151,Visual,OTHER,0.3;0.6;1.2;2.4,0.6,0.475294118,SC,S,0.546841932
Human,4,1,1,152,Visual,OTHER,0.3;0.6;1.2;2.4,0.6,0.742647059,SC,S,0.658861341
Human,4,1,1,153,Visual,OTHER,0.3;0.6;1.2;2.4,1.2,0.918552036,SC,L,1.398716726
Human,4,1,1,154,Visual,OTHER,0.3;0.6;1.2;2.4,0.6,0.440087146,SC,S,0.53144012
Human,4,1,1,155,Visual,OTHER,0.3;0.6;1.2;2.4,0.6,0.802058824,SC,L,0.212891899
Human,4,1,1,156,Visual,OTHER,0.3;0.6;1.2;2.4,0.6,0.802058824,SC,L,0.487123121
Human,4,1,1,157,Visual,OTHER,0.3;0.6;1.2;2.4,2.4,1.841628959,SC,S,0.576546785
Human,4,1,1,158,Visual,OTHER,0.3;0.6;1.2;2.4,0.3,0.226244344,SC,L,0.430746808
Human,4,1,1,159,Visual,OTHER,0.3;0.6;1.2;2.4,2.4,3.232058824,SC,L,0.502064596
Human,4,1,1,160,Visual,OTHER,0.3;0.6;1.2;2.4,0.3,0.217864924,SC,S,0.622376708
Human,4,1,1,161,Visual,OTHER,0.3;0.6;1.2;2.4,1.2,0.88453159,SC,S,0.555300356
Human,4,1,1,162,Visual,OTHER,0.3;0.6;1.2;2.4,2.4,3.112352941,SC,L,0.552576974
Human,4,1,1,163,Visual,OTHER,0.3;0.6;1.2;2.4,0.3,0.382352941,SC,L,0.250182196
Human,4,1,1,164,Visual,OTHER,0.3;0.6;1.2;2.4,1.2,0.918552036,SC,L,0.968329608
Human,4,1,1,165,Visual,OTHER,0.3;0.6;1.2;2.4,0.6,0.802058824,SC,L,0.476186727
Human,4,1,1,166,Visual,OTHER,0.3;0.6;1.2;2.4,0.6,0.440087146,SC,S,0.39660793
Human,4,1,1,167,Visual,OTHER,0.3;0.6;1.2;2.4,1.2,1.612058824,SC,L,0.72086795
Human,4,1,1,168,Visual,OTHER,0.3;0.6;1.2;2.4,2.4,1.841628959,SC,S,0.463783292
Human,4,1,1,169,Visual,OTHER,0.3;0.6;1.2;2.4,0.3,0.226244344,SC,L,1.078701463
Human,4,1,1,170,Visual,OTHER,0.3;0.6;1.2;2.4,0.6,0.802058824,SC,L,0.28482669
Human,4,1,1,171,Visual,OTHER,0.3;0.6;1.2;2.4,0.3,0.217864924,SC,S,0.527863379
Human,4,1,1,172,Visual,OTHER,0.3;0.6;1.2;2.4,1.2,1.612058824,SC,L,0.552444457
Human,4,1,1,173,Visual,OTHER,0.3;0.6;1.2;2.4,0.3,0.226244344,SC,L,0.456834772
Human,4,1,1,174,Visual,OTHER,0.3;0.6;1.2;2.4,0.3,0.397058824,SC,L,0.408218982
Human,4,1,1,175,Visual,OTHER,0.3;0.6;1.2;2.4,0.3,0.397058824,SC,L,0.501108303
Human,4,1,1,176,Visual,OTHER,0.3;0.6;1.2;2.4,0.6,0.802058824,SC,S,0.710429021
Human,4,1,1,177,Visual,OTHER,0.3;0.6;1.2;2.4,0.3,0.411764706,SC,L,0.385170146
Human,4,1,1,178,Visual,OTHER,0.3;0.6;1.2;2.4,1.2,1.671764706,SC,L,0.60709413
Human,4,1,1,179,Visual,OTHER,0.3;0.6;1.2;2.4,0.6,0.831764706,SC,S,0.890014096
Human,4,1,1,180,Visual,OTHER,0.3;0.6;1.2;2.4,2.4,1.651115619,SC,S,0.479916813
Human,4,1,1,181,Visual,OTHER,0.3;0.6;1.2;2.4,1.2,0.823529412,SC,S,0.512096316
Human,4,1,1,182,Visual,OTHER,0.3;0.6;1.2;2.4,0.3,0.202839757,SC,S,0.597270695
Human,4,1,1,183,Visual,OTHER,0.3;0.6;1.2;2.4,0.6,0.424369748,SC,S,0.501621768
Human,4,1,1,184,Visual,OTHER,0.3;0.6;1.2;2.4,1.2,0.852941176,SC,S,2.30120834
Human,4,1,1,185,Visual,OTHER,0.3;0.6;1.2;2.4,0.3,0.210084034,SC,S,0.594461282
Human,4,1,1,186,Visual,OTHER,0.3;0.6;1.2;2.4,2.4,1.773420479,SC,S,0.465157359
Human,4,1,1,187,Visual,OTHER,0.3;0.6;1.2;2.4,2.4,3.232058824,SC,L,0.400721077
Human,4,1,1,188,Visual,OTHER,0.3;0.6;1.2;2.4,1.2,0.88453159,SC,S,0.788759324
Human,4,1,1,189,Visual,OTHER,0.3;0.6;1.2;2.4,1.2,1.552352941,SC,L,0.347733748
Human,4,1,1,190,Visual,OTHER,0.3;0.6;1.2;2.4,1.2,1.552352941,SC,L,1.80736508
Human,4,1,1,191,Visual,OTHER,0.3;0.6;1.2;2.4,2.4,3.112352941,SC,L,0.404423392
Human,4,1,1,192,Visual,OTHER,0.3;0.6;1.2;2.4,1.2,1.492647059,SC,L,1.703444882
Human,4,1,1,193,Visual,OTHER,0.3;0.6;1.2;2.4,1.2,1.492647059,SC,L,0.607410178
Human,4,1,1,194,Visual,OTHER,0.3;0.6;1.2;2.4,0.3,0.367647059,SC,L,0.447986345
Human,4,1,1,195,Visual,OTHER,0.3;0.6;1.2;2.4,2.4,2.872941176,SC,L,0.4659105
Human,4,1,1,196,Visual,OTHER,0.3;0.6;1.2;2.4,0.3,0.352941176,SC,L,0.781610369
Human,4,1,1,197,Visual,OTHER,0.3;0.6;1.2;2.4,0.3,0.352941176,SC,L,0.433010759
Human,4,1,1,198,Visual,OTHER,0.3;0.6;1.2;2.4,0.6,0.683235294,SC,S,0.890299656
Human,4,1,1,199,Visual,OTHER,0.3;0.6;1.2;2.4,2.4,1.995098039,SC,L,0.599636071
Human,4,1,1,200,Visual,OTHER,0.3;0.6;1.2;2.4,0.6,0.742647059,SC,L,0.508800908
Human,5,1,1,1,Visual,OTHER,0.3;0.6;1.2;2.4,0.3,0.184375,SC,S,2.468633325
Human,5,1,1,2,Visual,OTHER,0.3;0.6;1.2;2.4,2.4,3.832,SC,L,0.685294795
Human,5,1,1,3,Visual,OTHER,0.3;0.6;1.2;2.4,0.3,0.472,SC,L,0.82069761
Human,5,1,1,4,Visual,OTHER,0.3;0.6;1.2;2.4,0.3,0.190322581,SC,S,1.226060862
Human,5,1,1,5,Visual,OTHER,0.3;0.6;1.2;2.4,0.6,0.92225,SC,L,0.593971969
Human,5,1,1,6,Visual,OTHER,0.3;0.6;1.2;2.4,2.4,1.54516129,SC,S,0.880725544
Human,5,1,1,7,Visual,OTHER,0.3;0.6;1.2;2.4,0.3,0.4425,SC,S,3.301084384
Human,5,1,1,8,Visual,OTHER,0.3;0.6;1.2;2.4,0.6,0.92225,SC,L,0.539308012
Human,5,1,1,9,Visual,OTHER,0.3;0.6;1.2;2.4,0.6,0.92225,SC,L,0.570354476
Human,5,1,1,10,Visual,OTHER,0.3;0.6;1.2;2.4,2.4,3.71225,SC,L,0.505386975
Human,5,1,1,11,Visual,OTHER,0.3;0.6;1.2;2.4,1.2,0.796666667,SC,S,0.904261536
Human,5,1,1,12,Visual,OTHER,0.3;0.6;1.2;2.4,0.3,0.196666667,SC,S,0.951719896
Human,5,1,1,13,Visual,OTHER,0.3;0.6;1.2;2.4,1.2,1.7925,SC,L,0.973761703
Human,5,1,1,14,Visual,OTHER,0.3;0.6;1.2;2.4,0.3,0.42775,SC,S,1.109998546
Human,5,1,1,15,Visual,OTHER,0.3;0.6;1.2;2.4,0.3,0.196666667,SC,S,0.848973341
Human,5,1,1,16,Visual,OTHER,0.3;0.6;1.2;2.4,0.6,0.8925,SC,L,0.451854977
Human,5,1,1,17,Visual,OTHER,0.3;0.6;1.2;2.4,1.2,0.796666667,SC,S,1.004275693
Human,5,1,1,18,Visual,OTHER,0.3;0.6;1.2;2.4,1.2,1.73275,SC,L,0.452762053
Human,5,1,1,19,Visual,OTHER,0.3;0.6;1.2;2.4,1.2,0.824137931,SC,S,0.741795242
Human,5,1,1,20,Visual,OTHER,0.3;0.6;1.2;2.4,0.3,0.42775,SC,L,0.633701917
Human,5,1,1,21,Visual,OTHER,0.3;0.6;1.2;2.4,0.6,0.425,SC,S,0.562201353
Human,5,1,1,22,Visual,OTHER,0.3;0.6;1.2;2.4,2.4,1.710714286,SC,S,0.654752127
Human,5,1,1,23,Visual,OTHER,0.3;0.6;1.2;2.4,0.6,0.425,SC,S,0.704440597
Human,5,1,1,24,Visual,OTHER,0.3;0.6;1.2;2.4,2.4,1.774074074,SC,S,0.734833846
Human,5,1,1,25,Visual,OTHER,0.3;0.6;1.2;2.4,0.3,0.39825,SC,L,0.460551138
Human,5,1,1,26,Visual,OTHER,0.3;0.6;1.2;2.4,0.3,0.39825,SC,L,0.703831151
Human,5,1,1,27,Visual,OTHER,0.3;0.6;1.2;2.4,0.3,0.226923077,SC,S,1.170553821
Human,5,1,1,28,Visual,OTHER,0.3;0.6;1.2;2.4,0.3,0.226923077,SC,S,0.683425402
Human,5,1,1,29,Visual,OTHER,0.3;0.6;1.2;2.4,2.4,3.1135,SC,L,0.433283605
Human,5,1,1,30,Visual,OTHER,0.3;0.6;1.2;2.4,0.6,0.74375,SC,L,0.552361762
Human,5,1,1,31,Visual,OTHER,0.3;0.6;1.2;2.4,0.3,0.36875,SC,L,0.509604805
Human,5,1,1,32,Visual,OTHER,0.3;0.6;1.2;2.4,2.4,2.99375,SC,L,0.703572762
Human,5,1,1,33,Visual,OTHER,0.3;0.6;1.2;2.4,1.2,0.995833333,SC,S,0.656693663
Human,5,1,1,34,Visual,OTHER,0.3;0.6;1.2;2.4,1.2,0.995833333,SC,S,1.340157494
Human,5,1,1,35,Visual,OTHER,0.3;0.6;1.2;2.4,2.4,1.995833333,SC,S,0.499639341
Human,5,1,1,36,Visual,OTHER,0.3;0.6;1.2;2.4,1.2,1.37425,SC,L,0.503157469
Human,5,1,1,37,Visual,OTHER,0.3;0.6;1.2;2.4,0.6,0.68425,SC,S,1.311725704
Human,5,1,1,38,Visual,OTHER,0.3;0.6;1.2;2.4,2.4,2.874,SC,L,0.463859779
Human,5,1,1,39,Visual,OTHER,0.3;0.6;1.2;2.4,0.6,0.495833333,SC,S,0.823931391
Human,5,1,1,40,Visual,OTHER,0.3;0.6;1.2;2.4,2.4,1.995833333,SC,S,0.871883586
Human,5,1,1,41,Visual,OTHER,0.3;0.6;1.2;2.4,2.4,2.082608696,SC,S,0.56468955
Human,5,1,1,42,Visual,OTHER,0.3;0.6;1.2;2.4,0.3,0.33925,SC,L,0.937590634
Human,5,1,1,43,Visual,OTHER,0.3;0.6;1.2;2.4,0.3,0.33925,SC,S,0.752567266
Human,5,1,1,44,Visual,OTHER,0.3;0.6;1.2;2.4,0.3,0.245833333,SC,L,2.084817138
Human,5,1,1,45,Visual,OTHER,0.3;0.6;1.2;2.4,0.3,0.236,SC,L,0.592093219
Human,5,1,1,46,Visual,OTHER,0.3;0.6;1.2;2.4,1.2,1.5535,SC,L,0.880083497
Human,5,1,1,47,Visual,OTHER,0.3;0.6;1.2;2.4,0.6,0.7735,SC,L,0.574935136
Human,5,1,1,48,Visual,OTHER,0.3;0.6;1.2;2.4,1.2,1.5535,SC,L,0.933942104
Human,5,1,1,49,Visual,OTHER,0.3;0.6;1.2;2.4,1.2,1.49375,SC,L,0.712503163
Human,5,1,1,50,Visual,OTHER,0.3;0.6;1.2;2.4,1.2,0.956,SC,S,0.631661976
Human,5,1,1,51,Visual,OTHER,0.3;0.6;1.2;2.4,1.2,1.49375,SC,L,0.526480955
Human,5,1,1,52,Visual,OTHER,0.3;0.6;1.2;2.4,0.6,0.495833333,SC,S,1.303668873
Human,5,1,1,53,Visual,OTHER,0.3;0.6;1.2;2.4,0.6,0.714,SC,L,0.574857861
Human,5,1,1,54,Visual,OTHER,0.3;0.6;1.2;2.4,1.2,1.434,SC,L,0.42548637
Human,5,1,1,55,Visual,OTHER,0.3;0.6;1.2;2.4,2.4,2.75425,SC,L,0.434108577
Human,5,1,1,56,Visual,OTHER,0.3;0.6;1.2;2.4,0.6,0.68425,SC,L,0.435433724
Human,5,1,1,57,Visual,OTHER,0.3;0.6;1.2;2.4,0.6,0.68425,SC,S,0.512028405
Human,5,1,1,58,Visual,OTHER,0.3;0.6;1.2;2.4,2.4,2.874,SC,L,0.432874289
Human,5,1,1,59,Visual,OTHER,0.3;0.6;1.2;2.4,0.6,0.714,SC,L,0.456239129
Human,5,1,1,60,Visual,OTHER,0.3;0.6;1.2;2.4,1.2,0.995833333,SC,S,0.97292677
Human,5,1,1,61,Visual,OTHER,0.3;0.6;1.2;2.4,1.2,1.37425,SC,S,2.272302441
Human,5,1,1,62,Visual,OTHER,0.3;0.6;1.2;2.4,0.6,0.714,SC,S,2.077793861
Human,5,1,1,63,Visual,OTHER,0.3;0.6;1.2;2.4,0.6,0.476,SC,S,0.912194305
Human,5,1,1,64,Visual,OTHER,0.3;0.6;1.2;2.4,2.4,1.916,SC,S,0.613905615
Human,5,1,1,65,Visual,OTHER,0.3;0.6;1.2;2.4,0.6,0.476,SC,L,0.771711861
Human,5,1,1,66,Visual,OTHER,0.3;0.6;1.2;2.4,0.6,0.7735,SC,L,0.455403291
Human,5,1,1,67,Visual,OTHER,0.3;0.6;1.2;2.4,2.4,3.1135,SC,L,0.458724609
Human,5,1,1,68,Visual,OTHER,0.3;0.6;1.2;2.4,0.3,0.226923077,SC,S,1.188486768
Human,5,1,1,69,Visual,OTHER,0.3;0.6;1.2;2.4,1.2,0.956,SC,L,0.433879167
Human,5,1,1,70,Visual,OTHER,0.3;0.6;1.2;2.4,0.3,0.3835,SC,S,0.64619482
Human,5,1,1,71,Visual,OTHER,0.3;0.6;1.2;2.4,0.3,0.39825,SC,L,1.353439447
Human,5,1,1,72,Visual,OTHER,0.3;0.6;1.2;2.4,2.4,3.23325,SC,L,0.412145555
Human,5,1,1,73,Visual,OTHER,0.3;0.6;1.2;2.4,1.2,1.61325,SC,L,0.436635713
Human,5,1,1,74,Visual,OTHER,0.3;0.6;1.2;2.4,0.3,0.3835,SC,S,0.62205089
Human,5,1,1,75,Visual,OTHER,0.3;0.6;1.2;2.4,0.3,0.218518519,SC,L,0.602023065
Human,5,1,1,76,Visual,OTHER,0.3;0.6;1.2;2.4,1.2,0.853571429,SC,S,1.089752177
Human,5,1,1,77,Visual,OTHER,0.3;0.6;1.2;2.4,1.2,1.673,SC,L,0.417059162
Human,5,1,1,78,Visual,OTHER,0.3;0.6;1.2;2.4,2.4,1.710714286,SC,S,0.59317175
Human,5,1,1,79,Visual,OTHER,0.3;0.6;1.2;2.4,0.6,0.440740741,SC,S,1.333406793
Human,5,1,1,80,Visual,OTHER,0.3;0.6;1.2;2.4,1.2,0.885185185,SC,S,0.940055889
Human,5,1,1,81,Visual,OTHER,0.3;0.6;1.2;2.4,0.3,0.39825,SC,L,0.414401021
Human,5,1,1,82,Visual,OTHER,0.3;0.6;1.2;2.4,0.3,0.226923077,SC,S,0.540482532
Human,5,1,1,83,Visual,OTHER,0.3;0.6;1.2;2.4,2.4,1.842307692,SC,S,1.244790406
Human,5,1,1,84,Visual,OTHER,0.3;0.6;1.2;2.4,1.2,0.919230769,SC,S,0.60535525
Human,5,1,1,85,Visual,OTHER,0.3;0.6;1.2;2.4,0.6,0.74375,SC,L,0.487358039
Human,5,1,1,86,Visual,OTHER,0.3;0.6;1.2;2.4,2.4,1.916,SC,S,0.552487032
Human,5,1,1,87,Visual,OTHER,0.3;0.6;1.2;2.4,0.3,0.36875,SC,L,1.083365212
Human,5,1,1,88,Visual,OTHER,0.3;0.6;1.2;2.4,2.4,2.874,SC,L,0.427249811
Human,5,1,1,89,Visual,OTHER,0.3;0.6;1.2;2.4,1.2,1.434,SC,L,0.574836128
Human,5,1,1,90,Visual,OTHER,0.3;0.6;1.2;2.4,1.2,0.995833333,SC,L,0.573948068
Human,5,1,1,91,Visual,OTHER,0.3;0.6;1.2;2.4,0.6,0.74375,SC,L,0.416405041
Human,5,1,1,92,Visual,OTHER,0.3;0.6;1.2;2.4,0.3,0.236,SC,S,1.018257952
Human,5,1,1,93,Visual,OTHER,0.3;0.6;1.2;2.4,0.6,0.476,SC,S,0.575131041
Human,5,1,1,94,Visual,OTHER,0.3;0.6;1.2;2.4,2.4,2.874,SC,S,0.586937524
Human,5,1,1,95,Visual,OTHER,0.3;0.6;1.2;2.4,1.2,0.956,SC,S,0.721286259
Human,5,1,1,96,Visual,OTHER,0.3;0.6;1.2;2.4,2.4,1.916,SC,S,0.618917024
Human,5,1,1,97,Visual,OTHER,0.3;0.6;1.2;2.4,2.4,1.916,SC,S,1.878577539
Human,5,1,1,98,Visual,OTHER,0.3;0.6;1.2;2.4,0.6,0.714,SC,L,0.427970039
Human,5,1,1,99,Visual,OTHER,0.3;0.6;1.2;2.4,0.6,0.714,SC,L,0.471702896
Human,5,1,1,100,Visual,OTHER,0.3;0.6;1.2;2.4,1.2,0.995833333,SC,S,0.525343562
Human,5,1,1,101,Visual,OTHER,0.3;0.6;1.2;2.4,2.4,2.082608696,SC,S,0.726505345
Human,5,1,1,102,Visual,OTHER,0.3;0.6;1.2;2.4,0.3,0.33925,SC,L,0.605645032
Human,5,1,1,103,Visual,OTHER,0.3;0.6;1.2;2.4,0.6,0.517391304,SC,S,0.576780984
Human,5,1,1,104,Visual,OTHER,0.3;0.6;1.2;2.4,0.6,0.540909091,SC,S,1.184257467
Human,5,1,1,105,Visual,OTHER,0.3;0.6;1.2;2.4,1.2,1.3145,SC,S,1.231661493
Human,5,1,1,106,Visual,OTHER,0.3;0.6;1.2;2.4,2.4,2.75425,SC,L,1.189175904
Human,5,1,1,107,Visual,OTHER,0.3;0.6;1.2;2.4,0.6,0.68425,SC,L,0.462592286
Human,5,1,1,108,Visual,OTHER,0.3;0.6;1.2;2.4,1.2,1.37425,SC,L,2.709025182
Human,5,1,1,109,Visual,OTHER,0.3;0.6;1.2;2.4,0.3,0.268181818,SC,L,0.506629413
Human,5,1,1,110,Visual,OTHER,0.3;0.6;1.2;2.4,1.2,1.039130435,SC,S,1.163633477
Human,5,1,1,111,Visual,OTHER,0.3;0.6;1.2;2.4,0.6,0.517391304,SC,L,0.446437572
Human,5,1,1,112,Visual,OTHER,0.3;0.6;1.2;2.4,0.6,0.495833333,SC,S,0.619075498
Human,5,1,1,113,Visual,OTHER,0.3;0.6;1.2;2.4,1.2,1.434,SC,L,0.404314814
Human,5,1,1,114,Visual,OTHER,0.3;0.6;1.2;2.4,0.3,0.354,SC,L,0.80476959
Human,5,1,1,115,Visual,OTHER,0.3;0.6;1.2;2.4,0.6,0.517391304,SC,S,0.762504959
Human,5,1,1,116,Visual,OTHER,0.3;0.6;1.2;2.4,0.6,0.517391304,SC,S,1.748390488
Human,5,1,1,117,Visual,OTHER,0.3;0.6;1.2;2.4,2.4,2.082608696,SC,S,0.850536048
Human,5,1,1,118,Visual,OTHER,0.3;0.6;1.2;2.4,1.2,1.086363636,SC,S,0.804143239
Human,5,1,1,119,Visual,OTHER,0.3;0.6;1.2;2.4,0.3,0.3245,SC,S,0.85016386
Human,5,1,1,120,Visual,OTHER,0.3;0.6;1.2;2.4,2.4,2.75425,SC,L,0.480147008
Human,5,1,1,121,Visual,OTHER,0.3;0.6;1.2;2.4,2.4,2.082608696,SC,S,0.789609792
Human,5,1,1,122,Visual,OTHER,0.3;0.6;1.2;2.4,0.6,0.517391304,SC,L,0.434104049
Human,5,1,1,123,Visual,OTHER,0.3;0.6;1.2;2.4,2.4,2.874,SC,L,0.607396399
Human,5,1,1,124,Visual,OTHER,0.3;0.6;1.2;2.4,2.4,2.874,SC,L,0.391610914
Human,5,1,1,125,Visual,OTHER,0.3;0.6;1.2;2.4,0.6,0.495833333,SC,S,0.571681434
Human,5,1,1,126,Visual,OTHER,0.3;0.6;1.2;2.4,2.4,2.082608696,SC,S,0.738429551
Human,5,1,1,127,Visual,OTHER,0.3;0.6;1.2;2.4,0.3,0.256521739,SC,S,0.688223701
Human,5,1,1,128,Visual,OTHER,0.3;0.6;1.2;2.4,1.2,1.37425,SC,L,0.433717976
Human,5,1,1,129,Visual,OTHER,0.3;0.6;1.2;2.4,0.3,0.268181818,SC,S,0.531270801
Human,5,1,1,130,Visual,OTHER,0.3;0.6;1.2;2.4,1.2,1.3145,SC,L,0.489656368
Human,5,1,1,131,Visual,OTHER,0.3;0.6;1.2;2.4,2.4,2.6345,SC,L,0.454434937
Human,5,1,1,132,Visual,OTHER,0.3;0.6;1.2;2.4,1.2,1.25475,SC,L,1.47971958
Human,5,1,1,133,Visual,OTHER,0.3;0.6;1.2;2.4,2.4,2.280952381,SC,S,0.798740927
Human,5,1,1,134,Visual,OTHER,0.3;0.6;1.2;2.4,1.2,1.138095238,SC,S,0.57997009
Human,5,1,1,135,Visual,OTHER,0.3;0.6;1.2;2.4,0.6,0.62475,SC,S,0.54241954
Human,5,1,1,136,Visual,OTHER,0.3;0.6;1.2;2.4,0.6,0.540909091,SC,L,0.742934748
Human,5,1,1,137,Visual,OTHER,0.3;0.6;1.2;2.4,1.2,1.37425,SC,L,0.509783202
Human,5,1,1,138,Visual,OTHER,0.3;0.6;1.2;2.4,1.2,1.039130435,SC,S,0.554610587
Human,5,1,1,139,Visual,OTHER,0.3;0.6;1.2;2.4,0.3,0.256521739,SC,S,0.723065397
Human,5,1,1,140,Visual,OTHER,0.3;0.6;1.2;2.4,0.6,0.6545,SC,L,0.441197357
Human,5,1,1,141,Visual,OTHER,0.3;0.6;1.2;2.4,1.2,1.3145,SC,L,0.402705621
Human,5,1,1,142,Visual,OTHER,0.3;0.6;1.2;2.4,0.3,0.3245,SC,S,0.536879884
Human,5,1,1,143,Visual,OTHER,0.3;0.6;1.2;2.4,1.2,1.37425,SC,L,1.023389198
Human,5,1,1,144,Visual,OTHER,0.3;0.6;1.2;2.4,0.3,0.256521739,SC,S,0.495101845
Human,5,1,1,145,Visual,OTHER,0.3;0.6;1.2;2.4,0.3,0.256521739,SC,S,0.788760672
Human,5,1,1,146,Visual,OTHER,0.3;0.6;1.2;2.4,2.4,2.6345,SC,L,0.561326877
Human,5,1,1,147,Visual,OTHER,0.3;0.6;1.2;2.4,0.6,0.540909091,SC,S,1.394328219
Human,5,1,1,148,Visual,OTHER,0.3;0.6;1.2;2.4,1.2,1.086363636,SC,L,0.883564195
Human,5,1,1,149,Visual,OTHER,0.3;0.6;1.2;2.4,2.4,2.75425,SC,L,0.217713344
Human,5,1,1,150,Visual,OTHER,0.3;0.6;1.2;2.4,2.4,2.082608696,SC,S,0.679865014
Human,5,1,1,151,Visual,OTHER,0.3;0.6;1.2;2.4,0.6,0.68425,SC,L,1.158182265
Human,5,1,1,152,Visual,OTHER,0.3;0.6;1.2;2.4,2.4,2.177272727,SC,S,0.956846614
Human,5,1,1,153,Visual,OTHER,0.3;0.6;1.2;2.4,1.2,1.086363636,SC,S,1.009815953
Human,5,1,1,154,Visual,OTHER,0.3;0.6;1.2;2.4,0.6,0.6545,SC,S,0.569010916
Human,5,1,1,155,Visual,OTHER,0.3;0.6;1.2;2.4,1.2,1.039130435,SC,S,0.7843083
Human,5,1,1,156,Visual,OTHER,0.3;0.6;1.2;2.4,0.3,0.33925,SC,S,0.566840574
Human,5,1,1,157,Visual,OTHER,0.3;0.6;1.2;2.4,2.4,2.874,SC,S,0.976242353
Human,5,1,1,158,Visual,OTHER,0.3;0.6;1.2;2.4,0.3,0.36875,SC,L,0.482042058
Human,5,1,1,159,Visual,OTHER,0.3;0.6;1.2;2.4,2.4,1.916,SC,L,0.792206355
Human,5,1,1,160,Visual,OTHER,0.3;0.6;1.2;2.4,0.3,0.226923077,SC,S,0.54825411
Human,5,1,1,161,Visual,OTHER,0.3;0.6;1.2;2.4,0.6,0.457692308,SC,S,0.542186206
Human,5,1,1,162,Visual,OTHER,0.3;0.6;1.2;2.4,0.3,0.3835,SC,L,0.859621302
Human,5,1,1,163,Visual,OTHER,0.3;0.6;1.2;2.4,0.6,0.476,SC,S,1.00091121
Human,5,1,1,164,Visual,OTHER,0.3;0.6;1.2;2.4,0.6,0.476,SC,S,0.791265169
Human,5,1,1,165,Visual,OTHER,0.3;0.6;1.2;2.4,0.6,0.74375,SC,L,0.986090698
Human,5,1,1,166,Visual,OTHER,0.3;0.6;1.2;2.4,0.6,0.714,SC,S,0.678983293
Human,5,1,1,167,Visual,OTHER,0.3;0.6;1.2;2.4,1.2,1.49375,SC,L,0.384018941
Human,5,1,1,168,Visual,OTHER,0.3;0.6;1.2;2.4,2.4,1.916,SC,S,0.559544419
Human,5,1,1,169,Visual,OTHER,0.3;0.6;1.2;2.4,0.3,0.36875,SC,S,0.644425643
Human,5,1,1,170,Visual,OTHER,0.3;0.6;1.2;2.4,2.4,1.842307692,SC,S,2.274133196
Human,5,1,1,171,Visual,OTHER,0.3;0.6;1.2;2.4,0.3,0.226923077,SC,S,1.95284129
Human,5,1,1,172,Visual,OTHER,0.3;0.6;1.2;2.4,1.2,1.5535,SC,L,0.23821629
Human,5,1,1,173,Visual,OTHER,0.3;0.6;1.2;2.4,0.3,0.236,SC,S,0.600046816
Human,5,1,1,174,Visual,OTHER,0.3;0.6;1.2;2.4,0.6,0.74375,SC,L,0.463694663
Human,5,1,1,175,Visual,OTHER,0.3;0.6;1.2;2.4,0.3,0.36875,SC,L,0.456248185
Human,5,1,1,176,Visual,OTHER,0.3;0.6;1.2;2.4,0.6,0.495833333,SC,S,0.613492677
Human,5,1,1,177,Visual,OTHER,0.3;0.6;1.2;2.4,0.3,0.245833333,SC,S,1.105980242
Human,5,1,1,178,Visual,OTHER,0.3;0.6;1.2;2.4,0.3,0.245833333,SC,S,0.57594092
Human,5,1,1,179,Visual,OTHER,0.3;0.6;1.2;2.4,0.6,0.517391304,SC,S,0.762073004
Human,5,1,1,180,Visual,OTHER,0.3;0.6;1.2;2.4,0.6,0.517391304,SC,L,0.475050777
Human,5,1,1,181,Visual,OTHER,0.3;0.6;1.2;2.4,2.4,2.874,SC,L,0.659570047
Human,5,1,1,182,Visual,OTHER,0.3;0.6;1.2;2.4,1.2,1.434,SC,S,0.57058117
Human,5,1,1,183,Visual,OTHER,0.3;0.6;1.2;2.4,0.3,0.36875,SC,L,0.463340889
Human,5,1,1,184,Visual,OTHER,0.3;0.6;1.2;2.4,2.4,1.916,SC,S,1.025817023
Human,5,1,1,185,Visual,OTHER,0.3;0.6;1.2;2.4,1.2,0.956,SC,S,0.946516507
Human,5,1,1,186,Visual,OTHER,0.3;0.6;1.2;2.4,1.2,0.995833333,SC,L,0.353164457
Human,5,1,1,187,Visual,OTHER,0.3;0.6;1.2;2.4,0.3,0.36875,SC,L,1.33770552
Human,5,1,1,188,Visual,OTHER,0.3;0.6;1.2;2.4,2.4,2.99375,SC,L,0.223564213
Human,5,1,1,189,Visual,OTHER,0.3;0.6;1.2;2.4,2.4,2.99375,SC,L,0.480660766
Human,5,1,1,190,Visual,OTHER,0.3;0.6;1.2;2.4,1.2,0.995833333,SC,S,0.57679819
Human,5,1,1,191,Visual,OTHER,0.3;0.6;1.2;2.4,2.4,2.874,SC,L,0.379564154
Human,5,1,1,192,Visual,OTHER,0.3;0.6;1.2;2.4,0.6,0.495833333,SC,S,0.733335132
Human,5,1,1,193,Visual,OTHER,0.3;0.6;1.2;2.4,1.2,1.37425,SC,L,0.592344363
Human,5,1,1,194,Visual,OTHER,0.3;0.6;1.2;2.4,1.2,1.039130435,SC,S,0.652522319
Human,5,1,1,195,Visual,OTHER,0.3;0.6;1.2;2.4,2.4,2.082608696,SC,L,0.210812319
Human,5,1,1,196,Visual,OTHER,0.3;0.6;1.2;2.4,0.3,0.245833333,SC,S,0.510432494
Human,5,1,1,197,Visual,OTHER,0.3;0.6;1.2;2.4,0.3,0.245833333,SC,L,0.918209082
Human,5,1,1,198,Visual,OTHER,0.3;0.6;1.2;2.4,2.4,2.99375,SC,L,0.220043067
Human,5,1,1,199,Visual,OTHER,0.3;0.6;1.2;2.4,2.4,1.916,SC,S,0.602483395
Human,5,1,1,200,Visual,OTHER,0.3;0.6;1.2;2.4,2.4,2.99375,SC,L,0.322016569
Human,6,1,1,1,Visual,OTHER,0.3;0.6;1.2;2.4,2.4,3.830588235,SC,L,0.309215357
Human,6,1,1,2,Visual,OTHER,0.3;0.6;1.2;2.4,1.2,0.746323529,SC,S,0.40574481
Human,6,1,1,3,Visual,OTHER,0.3;0.6;1.2;2.4,1.2,0.746323529,SC,S,0.552064591
Human,6,1,1,4,Visual,OTHER,0.3;0.6;1.2;2.4,2.4,1.54459203,SC,S,0.796507345
Human,6,1,1,5,Visual,OTHER,0.3;0.6;1.2;2.4,0.3,0.189753321,SC,S,0.627759353
Human,6,1,1,6,Visual,OTHER,0.3;0.6;1.2;2.4,2.4,3.710882353,SC,L,0.2830637
Human,6,1,1,7,Visual,OTHER,0.3;0.6;1.2;2.4,0.6,0.396078431,SC,S,0.636466208
Human,6,1,1,8,Visual,OTHER,0.3;0.6;1.2;2.4,0.3,0.441176471,SC,S,0.56524109
Human,6,1,1,9,Visual,OTHER,0.3;0.6;1.2;2.4,0.6,0.383301708,SC,L,0.532565329
Human,6,1,1,10,Visual,OTHER,0.3;0.6;1.2;2.4,1.2,0.746323529,SC,S,0.538610381
Human,6,1,1,11,Visual,OTHER,0.3;0.6;1.2;2.4,0.6,0.371323529,SC,S,0.636960353
Human,6,1,1,12,Visual,OTHER,0.3;0.6;1.2;2.4,1.2,1.910588235,SC,L,0.436798677
Human,6,1,1,13,Visual,OTHER,0.3;0.6;1.2;2.4,2.4,1.54459203,SC,S,0.761548314
Human,6,1,1,14,Visual,OTHER,0.3;0.6;1.2;2.4,0.6,0.920882353,SC,L,1.016582134
Human,6,1,1,15,Visual,OTHER,0.3;0.6;1.2;2.4,2.4,3.710882353,SC,L,0.238782019
Human,6,1,1,16,Visual,OTHER,0.3;0.6;1.2;2.4,1.2,0.796078431,SC,S,0.409924064
Human,6,1,1,17,Visual,OTHER,0.3;0.6;1.2;2.4,1.2,0.796078431,SC,L,0.818047484
Human,6,1,1,18,Visual,OTHER,0.3;0.6;1.2;2.4,1.2,1.850882353,SC,L,1.532565027
Human,6,1,1,19,Visual,OTHER,0.3;0.6;1.2;2.4,0.6,0.920882353,SC,S,0.675790439
Human,6,1,1,20,Visual,OTHER,0.3;0.6;1.2;2.4,2.4,1.496323529,SC,S,0.972361428
Human,6,1,1,21,Visual,OTHER,0.3;0.6;1.2;2.4,2.4,3.830588235,SC,L,0.251813323
Human,6,1,1,22,Visual,OTHER,0.3;0.6;1.2;2.4,0.3,0.183823529,SC,S,0.652322923
Human,6,1,1,23,Visual,OTHER,0.3;0.6;1.2;2.4,2.4,3.710882353,SC,L,0.241926496
Human,6,1,1,24,Visual,OTHER,0.3;0.6;1.2;2.4,2.4,1.54459203,SC,S,0.546285176
Human,6,1,1,25,Visual,OTHER,0.3;0.6;1.2;2.4,2.4,1.54459203,SC,S,0.723722214
Human,6,1,1,26,Visual,OTHER,0.3;0.6;1.2;2.4,2.4,3.591176471,SC,L,0.266271822
Human,6,1,1,27,Visual,OTHER,0.3;0.6;1.2;2.4,1.2,1.791176471,SC,L,0.909368038
Human,6,1,1,28,Visual,OTHER,0.3;0.6;1.2;2.4,2.4,3.591176471,SC,L,0.309735462
Human,6,1,1,29,Visual,OTHER,0.3;0.6;1.2;2.4,0.3,0.202839757,SC,S,1.54072461
Human,6,1,1,30,Visual,OTHER,0.3;0.6;1.2;2.4,1.2,0.823529412,SC,S,0.563440796
Human,6,1,1,31,Visual,OTHER,0.3;0.6;1.2;2.4,0.3,0.202839757,SC,S,0.707976583
Human,6,1,1,32,Visual,OTHER,0.3;0.6;1.2;2.4,2.4,3.351764706,SC,L,0.512018914
Human,6,1,1,33,Visual,OTHER,0.3;0.6;1.2;2.4,1.2,0.852941176,SC,S,1.029214983
Human,6,1,1,34,Visual,OTHER,0.3;0.6;1.2;2.4,1.2,1.671764706,SC,L,1.160307125
Human,6,1,1,35,Visual,OTHER,0.3;0.6;1.2;2.4,0.6,0.440087146,SC,S,0.526740937
Human,6,1,1,36,Visual,OTHER,0.3;0.6;1.2;2.4,0.6,0.802058824,SC,L,1.736691637
Human,6,1,1,37,Visual,OTHER,0.3;0.6;1.2;2.4,0.3,0.217864924,SC,S,0.962210474
Human,6,1,1,38,Visual,OTHER,0.3;0.6;1.2;2.4,0.6,0.772352941,SC,L,1.321879901
Human,6,1,1,39,Visual,OTHER,0.3;0.6;1.2;2.4,0.6,0.457013575,SC,S,2.082385541
Human,6,1,1,40,Visual,OTHER,0.3;0.6;1.2;2.4,0.6,0.457013575,SC,S,0.616295608
Human,6,1,1,41,Visual,OTHER,0.3;0.6;1.2;2.4,0.6,0.742647059,SC,L,1.056939331
Human,6,1,1,42,Visual,OTHER,0.3;0.6;1.2;2.4,0.6,0.742647059,SC,S,1.621195705
Human,6,1,1,43,Visual,OTHER,0.3;0.6;1.2;2.4,0.6,0.457013575,SC,S,0.475272266
Human,6,1,1,44,Visual,OTHER,0.3;0.6;1.2;2.4,1.2,1.552352941,SC,S,0.555194881
Human,6,1,1,45,Visual,OTHER,0.3;0.6;1.2;2.4,0.6,0.802058824,SC,S,0.651436058
Human,6,1,1,46,Visual,OTHER,0.3;0.6;1.2;2.4,0.3,0.210084034,SC,L,1.852208397
Human,6,1,1,47,Visual,OTHER,0.3;0.6;1.2;2.4,0.3,0.426470588,SC,L,1.31630726
Human,6,1,1,48,Visual,OTHER,0.3;0.6;1.2;2.4,0.6,0.861470588,SC,L,0.533665609
Human,6,1,1,49,Visual,OTHER,0.3;0.6;1.2;2.4,0.6,0.409736308,SC,S,0.624503489
Human,6,1,1,50,Visual,OTHER,0.3;0.6;1.2;2.4,1.2,1.671764706,SC,L,0.567021763
Human,6,1,1,51,Visual,OTHER,0.3;0.6;1.2;2.4,0.3,0.411764706,SC,S,0.724999083
Human,6,1,1,52,Visual,OTHER,0.3;0.6;1.2;2.4,0.3,0.202839757,SC,S,1.061665556
Human,6,1,1,53,Visual,OTHER,0.3;0.6;1.2;2.4,2.4,1.651115619,SC,S,0.702312781
Human,6,1,1,54,Visual,OTHER,0.3;0.6;1.2;2.4,2.4,1.651115619,SC,L,0.552024746
Human,6,1,1,55,Visual,OTHER,0.3;0.6;1.2;2.4,0.3,0.441176471,SC,S,1.1334953
Human,6,1,1,56,Visual,OTHER,0.3;0.6;1.2;2.4,1.2,0.770398482,SC,S,1.075569538
Human,6,1,1,57,Visual,OTHER,0.3;0.6;1.2;2.4,0.6,0.383301708,SC,S,1.250972642
Human,6,1,1,58,Visual,OTHER,0.3;0.6;1.2;2.4,0.6,0.383301708,SC,S,0.521762659
Human,6,1,1,59,Visual,OTHER,0.3;0.6;1.2;2.4,2.4,3.591176471,SC,L,0.281495536
Human,6,1,1,60,Visual,OTHER,0.3;0.6;1.2;2.4,0.3,0.196078431,SC,S,0.855634209
Human,6,1,1,61,Visual,OTHER,0.3;0.6;1.2;2.4,0.3,0.196078431,SC,S,1.035368403
Human,6,1,1,62,Visual,OTHER,0.3;0.6;1.2;2.4,1.2,1.731470588,SC,L,0.507886448
Human,6,1,1,63,Visual,OTHER,0.3;0.6;1.2;2.4,2.4,3.471470588,SC,L,0.464327118
Human,6,1,1,64,Visual,OTHER,0.3;0.6;1.2;2.4,0.3,0.202839757,SC,S,0.858240168
Human,6,1,1,65,Visual,OTHER,0.3;0.6;1.2;2.4,2.4,1.710084034,SC,S,0.418288912
Human,6,1,1,66,Visual,OTHER,0.3;0.6;1.2;2.4,0.3,0.411764706,SC,L,0.778632694
Human,6,1,1,67,Visual,OTHER,0.3;0.6;1.2;2.4,2.4,3.351764706,SC,L,0.801305715
Human,6,1,1,68,Visual,OTHER,0.3;0.6;1.2;2.4,2.4,1.773420479,SC,S,1.5636038
Human,6,1,1,69,Visual,OTHER,0.3;0.6;1.2;2.4,0.3,0.397058824,SC,L,0.534119607
Human,6,1,1,70,Visual,OTHER,0.3;0.6;1.2;2.4,0.3,0.397058824,SC,S,0.793912555
Human,6,1,1,71,Visual,OTHER,0.3;0.6;1.2;2.4,0.3,0.210084034,SC,S,1.248922408
Human,6,1,1,72,Visual,OTHER,0.3;0.6;1.2;2.4,0.6,0.831764706,SC,L,0.5801557
Human,6,1,1,73,Visual,OTHER,0.3;0.6;1.2;2.4,1.2,0.852941176,SC,L,1.617353025
Human,6,1,1,74,Visual,OTHER,0.3;0.6;1.2;2.4,0.3,0.426470588,SC,S,0.862633139
Human,6,1,1,75,Visual,OTHER,0.3;0.6;1.2;2.4,1.2,1.791176471,SC,L,0.326786638
Human,6,1,1,76,Visual,OTHER,0.3;0.6;1.2;2.4,1.2,1.791176471,SC,L,2.055059346
Human,6,1,1,77,Visual,OTHER,0.3;0.6;1.2;2.4,0.3,0.441176471,SC,L,1.031964929
Human,6,1,1,78,Visual,OTHER,0.3;0.6;1.2;2.4,0.3,0.202839757,SC,S,1.595175659
Human,6,1,1,79,Visual,OTHER,0.3;0.6;1.2;2.4,2.4,1.651115619,SC,S,0.501278125
Human,6,1,1,80,Visual,OTHER,0.3;0.6;1.2;2.4,0.3,0.202839757,SC,L,2.044707353
Human,6,1,1,81,Visual,OTHER,0.3;0.6;1.2;2.4,0.6,0.891176471,SC,L,0.675212679
Human,6,1,1,82,Visual,OTHER,0.3;0.6;1.2;2.4,0.6,0.396078431,SC,S,0.633469944
Human,6,1,1,83,Visual,OTHER,0.3;0.6;1.2;2.4,1.2,0.796078431,SC,L,1.693355683
Human,6,1,1,84,Visual,OTHER,0.3;0.6;1.2;2.4,2.4,3.710882353,SC,L,0.282595515
Human,6,1,1,85,Visual,OTHER,0.3;0.6;1.2;2.4,0.3,0.189753321,SC,S,1.010758949
Human,6,1,1,86,Visual,OTHER,0.3;0.6;1.2;2.4,1.2,0.770398482,SC,S,0.593463206
Human,6,1,1,87,Visual,OTHER,0.3;0.6;1.2;2.4,2.4,1.596078431,SC,L,1.647601226
Human,6,1,1,88,Visual,OTHER,0.3;0.6;1.2;2.4,0.6,0.383301708,SC,S,0.999854552
Human,6,1,1,89,Visual,OTHER,0.3;0.6;1.2;2.4,0.3,0.455882353,SC,S,2.021234403
Human,6,1,1,90,Visual,OTHER,0.3;0.6;1.2;2.4,2.4,1.496323529,SC,L,0.9694358
Human,6,1,1,91,Visual,OTHER,0.3;0.6;1.2;2.4,2.4,3.950294118,SC,L,0.638309668
Human,6,1,1,92,Visual,OTHER,0.3;0.6;1.2;2.4,2.4,1.450980392,SC,S,1.213089793
Human,6,1,1,93,Visual,OTHER,0.3;0.6;1.2;2.4,1.2,0.723707665,SC,S,0.638156625
Human,6,1,1,94,Visual,OTHER,0.3;0.6;1.2;2.4,0.3,0.183823529,SC,S,0.717783115
Human,6,1,1,95,Visual,OTHER,0.3;0.6;1.2;2.4,0.6,0.950588235,SC,L,0.494777264
Human,6,1,1,96,Visual,OTHER,0.3;0.6;1.2;2.4,0.6,0.371323529,SC,L,1.074285425
Human,6,1,1,97,Visual,OTHER,0.3;0.6;1.2;2.4,0.3,0.485294118,SC,L,0.882567683
Human,6,1,1,98,Visual,OTHER,0.3;0.6;1.2;2.4,0.6,0.980294118,SC,L,0.485999472
Human,6,1,1,99,Visual,OTHER,0.3;0.6;1.2;2.4,1.2,1.970294118,SC,L,0.499060962
Human,6,1,1,100,Visual,OTHER,0.3;0.6;1.2;2.4,0.3,0.470588235,SC,S,0.627039416
Human,6,1,1,101,Visual,OTHER,0.3;0.6;1.2;2.4,1.2,1.970294118,SC,L,0.496205062
Human,6,1,1,102,Visual,OTHER,0.3;0.6;1.2;2.4,2.4,1.450980392,SC,S,0.70685638
Human,6,1,1,103,Visual,OTHER,0.3;0.6;1.2;2.4,1.2,1.970294118,SC,L,0.561391467
Human,6,1,1,104,Visual,OTHER,0.3;0.6;1.2;2.4,0.3,0.470588235,SC,L,1.032525182
Human,6,1,1,105,Visual,OTHER,0.3;0.6;1.2;2.4,2.4,1.496323529,SC,S,1.183606505
Human,6,1,1,106,Visual,OTHER,0.3;0.6;1.2;2.4,0.6,0.950588235,SC,L,2.021766885
Human,6,1,1,107,Visual,OTHER,0.3;0.6;1.2;2.4,2.4,1.54459203,SC,S,0.753641388
Human,6,1,1,108,Visual,OTHER,0.3;0.6;1.2;2.4,0.3,0.189753321,SC,S,0.925688712
Human,6,1,1,109,Visual,OTHER,0.3;0.6;1.2;2.4,0.6,0.383301708,SC,S,0.92113968
Human,6,1,1,110,Visual,OTHER,0.3;0.6;1.2;2.4,0.3,0.441176471,SC,L,0.927236953
Human,6,1,1,111,Visual,OTHER,0.3;0.6;1.2;2.4,0.3,0.196078431,SC,S,0.722729396
Human,6,1,1,112,Visual,OTHER,0.3;0.6;1.2;2.4,0.3,0.441176471,SC,L,0.970800208
Human,6,1,1,113,Visual,OTHER,0.3;0.6;1.2;2.4,0.6,0.409736308,SC,S,0.694236511
Human,6,1,1,114,Visual,OTHER,0.3;0.6;1.2;2.4,1.2,0.823529412,SC,S,1.549106965
Human,6,1,1,115,Visual,OTHER,0.3;0.6;1.2;2.4,0.6,0.861470588,SC,L,0.486699183
Human,6,1,1,116,Visual,OTHER,0.3;0.6;1.2;2.4,0.3,0.210084034,SC,S,0.626620434
Human,6,1,1,117,Visual,OTHER,0.3;0.6;1.2;2.4,2.4,3.351764706,SC,L,1.268155731
Human,6,1,1,118,Visual,OTHER,0.3;0.6;1.2;2.4,2.4,3.351764706,SC,L,0.242103688
Human,6,1,1,119,Visual,OTHER,0.3;0.6;1.2;2.4,0.6,0.802058824,SC,L,1.419057146
Human,6,1,1,120,Visual,OTHER,0.3;0.6;1.2;2.4,0.3,0.217864924,SC,S,0.64628089
Human,6,1,1,121,Visual,OTHER,0.3;0.6;1.2;2.4,2.4,3.232058824,SC,L,0.481397915
Human,6,1,1,122,Visual,OTHER,0.3;0.6;1.2;2.4,1.2,0.918552036,SC,S,0.816247492
Human,6,1,1,123,Visual,OTHER,0.3;0.6;1.2;2.4,0.6,0.457013575,SC,S,0.716937907
Human,6,1,1,124,Visual,OTHER,0.3;0.6;1.2;2.4,0.3,0.382352941,SC,S,1.163324218
Human,6,1,1,125,Visual,OTHER,0.3;0.6;1.2;2.4,2.4,1.773420479,SC,S,0.876029996
Human,6,1,1,126,Visual,OTHER,0.3;0.6;1.2;2.4,0.3,0.217864924,SC,S,0.786353674
Human,6,1,1,127,Visual,OTHER,0.3;0.6;1.2;2.4,2.4,3.232058824,SC,L,0.617590287
Human,6,1,1,128,Visual,OTHER,0.3;0.6;1.2;2.4,2.4,3.112352941,SC,L,1.109275246
Human,6,1,1,129,Visual,OTHER,0.3;0.6;1.2;2.4,2.4,3.112352941,SC,S,0.573391013
Human,6,1,1,130,Visual,OTHER,0.3;0.6;1.2;2.4,0.3,0.397058824,SC,L,1.135365324
Human,6,1,1,131,Visual,OTHER,0.3;0.6;1.2;2.4,2.4,1.773420479,SC,S,0.771507889
Human,6,1,1,132,Visual,OTHER,0.3;0.6;1.2;2.4,0.6,0.440087146,SC,S,0.860929138
Human,6,1,1,133,Visual,OTHER,0.3;0.6;1.2;2.4,1.2,1.552352941,SC,L,1.125309153
Human,6,1,1,134,Visual,OTHER,0.3;0.6;1.2;2.4,0.6,0.457013575,SC,S,0.649754697
Human,6,1,1,135,Visual,OTHER,0.3;0.6;1.2;2.4,2.4,1.841628959,SC,L,0.426862647
Human,6,1,1,136,Visual,OTHER,0.3;0.6;1.2;2.4,1.2,1.612058824,SC,S,1.084136934
Human,6,1,1,137,Visual,OTHER,0.3;0.6;1.2;2.4,0.3,0.411764706,SC,L,0.738429748
Human,6,1,1,138,Visual,OTHER,0.3;0.6;1.2;2.4,0.6,0.424369748,SC,S,0.850354372
Human,6,1,1,139,Visual,OTHER,0.3;0.6;1.2;2.4,1.2,1.671764706,SC,S,1.008518543
Human,6,1,1,140,Visual,OTHER,0.3;0.6;1.2;2.4,1.2,1.731470588,SC,L,1.475588616
Human,6,1,1,141,Visual,OTHER,0.3;0.6;1.2;2.4,1.2,0.823529412,SC,S,0.635261484
Human,6,1,1,142,Visual,OTHER,0.3;0.6;1.2;2.4,0.3,0.202839757,SC,S,0.853330412
Human,6,1,1,143,Visual,OTHER,0.3;0.6;1.2;2.4,0.3,0.210084034,SC,S,1.460787203
Human,6,1,1,144,Visual,OTHER,0.3;0.6;1.2;2.4,1.2,0.852941176,SC,S,1.314523568
Human,6,1,1,145,Visual,OTHER,0.3;0.6;1.2;2.4,2.4,3.351764706,SC,L,0.442470026
Human,6,1,1,146,Visual,OTHER,0.3;0.6;1.2;2.4,0.3,0.217864924,SC,S,3.319935318
Human,6,1,1,147,Visual,OTHER,0.3;0.6;1.2;2.4,0.3,0.217864924,SC,S,0.691027436
Human,6,1,1,148,Visual,OTHER,0.3;0.6;1.2;2.4,2.4,1.773420479,SC,S,0.536870157
Human,6,1,1,149,Visual,OTHER,0.3;0.6;1.2;2.4,2.4,3.112352941,SC,L,0.521273343
Human,6,1,1,150,Visual,OTHER,0.3;0.6;1.2;2.4,1.2,1.552352941,SC,S,0.79102647
Human,6,1,1,151,Visual,OTHER,0.3;0.6;1.2;2.4,0.6,0.802058824,SC,L,1.1444975
Human,6,1,1,152,Visual,OTHER,0.3;0.6;1.2;2.4,1.2,0.88453159,SC,S,1.345845487
Human,6,1,1,153,Visual,OTHER,0.3;0.6;1.2;2.4,0.3,0.397058824,SC,S,1.216450704
Human,6,1,1,154,Visual,OTHER,0.3;0.6;1.2;2.4,0.3,0.411764706,SC,S,0.646323452
Human,6,1,1,155,Visual,OTHER,0.3;0.6;1.2;2.4,1.2,1.731470588,SC,L,0.320372713
Human,6,1,1,156,Visual,OTHER,0.3;0.6;1.2;2.4,0.6,0.861470588,SC,S,0.614023809
Human,6,1,1,157,Visual,OTHER,0.3;0.6;1.2;2.4,0.3,0.441176471,SC,S,0.914346014
Human,6,1,1,158,Visual,OTHER,0.3;0.6;1.2;2.4,0.6,0.920882353,SC,L,0.503245649
Human,6,1,1,159,Visual,OTHER,0.3;0.6;1.2;2.4,0.6,0.920882353,SC,L,0.617007998
Human,6,1,1,160,Visual,OTHER,0.3;0.6;1.2;2.4,1.2,0.770398482,SC,S,1.011168574
Human,6,1,1,161,Visual,OTHER,0.3;0.6;1.2;2.4,1.2,0.796078431,SC,L,1.383887114
Human,6,1,1,162,Visual,OTHER,0.3;0.6;1.2;2.4,0.6,0.920882353,SC,S,0.699464428
Human,6,1,1,163,Visual,OTHER,0.3;0.6;1.2;2.4,0.3,0.470588235,SC,L,1.502955864
Human,6,1,1,164,Visual,OTHER,0.3;0.6;1.2;2.4,0.6,0.371323529,SC,S,0.559480088
Human,6,1,1,165,Visual,OTHER,0.3;0.6;1.2;2.4,2.4,3.830588235,SC,L,1.090832495
Human,6,1,1,166,Visual,OTHER,0.3;0.6;1.2;2.4,0.3,0.455882353,SC,L,3.626484295
Human,6,1,1,167,Visual,OTHER,0.3;0.6;1.2;2.4,2.4,1.54459203,SC,L,1.90331876
Human,6,1,1,168,Visual,OTHER,0.3;0.6;1.2;2.4,1.2,1.910588235,SC,L,0.386991444
Human,6,1,1,169,Visual,OTHER,0.3;0.6;1.2;2.4,0.6,0.371323529,SC,S,0.52143997
Human,6,1,1,170,Visual,OTHER,0.3;0.6;1.2;2.4,0.6,0.950588235,SC,S,0.746886965
Human,6,1,1,171,Visual,OTHER,0.3;0.6;1.2;2.4,1.2,1.970294118,SC,L,0.261528693
Human,6,1,1,172,Visual,OTHER,0.3;0.6;1.2;2.4,0.6,0.360071301,SC,S,0.720024729
Human,6,1,1,173,Visual,OTHER,0.3;0.6;1.2;2.4,1.2,1.970294118,SC,L,0.258994577
Human,6,1,1,174,Visual,OTHER,0.3;0.6;1.2;2.4,0.3,0.183823529,SC,S,0.869663462
Human,6,1,1,175,Visual,OTHER,0.3;0.6;1.2;2.4,2.4,3.830588235,SC,L,0.454539905
Human,6,1,1,176,Visual,OTHER,0.3;0.6;1.2;2.4,0.6,0.950588235,SC,S,1.15444017
Human,6,1,1,177,Visual,OTHER,0.3;0.6;1.2;2.4,1.2,0.723707665,SC,L,0.880884813
Human,6,1,1,178,Visual,OTHER,0.3;0.6;1.2;2.4,0.6,0.349480969,SC,S,0.583574266
Human,6,1,1,179,Visual,OTHER,0.3;0.6;1.2;2.4,1.2,0.702422145,SC,S,0.464909104
Human,6,1,1,180,Visual,OTHER,0.3;0.6;1.2;2.4,0.6,1.01,SC,L,0.243671852
Human,6,1,1,181,Visual,OTHER,0.3;0.6;1.2;2.4,0.6,0.980294118,SC,L,1.074923557
Human,6,1,1,182,Visual,OTHER,0.3;0.6;1.2;2.4,1.2,1.970294118,SC,L,0.225613066
Human,6,1,1,183,Visual,OTHER,0.3;0.6;1.2;2.4,0.3,0.485294118,SC,S,0.728798597
Human,6,1,1,184,Visual,OTHER,0.3;0.6;1.2;2.4,1.2,0.702422145,SC,S,3.592805151
Human,6,1,1,185,Visual,OTHER,0.3;0.6;1.2;2.4,2.4,1.408304498,SC,S,1.201655027
Human,6,1,1,186,Visual,OTHER,0.3;0.6;1.2;2.4,2.4,4.07,SC,L,0.494747078
Human,6,1,1,187,Visual,OTHER,0.3;0.6;1.2;2.4,0.6,0.360071301,SC,S,0.836920085
Human,6,1,1,188,Visual,OTHER,0.3;0.6;1.2;2.4,2.4,1.450980392,SC,S,0.853551071
Human,6,1,1,189,Visual,OTHER,0.3;0.6;1.2;2.4,1.2,0.723707665,SC,L,1.656623525
Human,6,1,1,190,Visual,OTHER,0.3;0.6;1.2;2.4,1.2,2.03,SC,L,0.338603257
Human,6,1,1,191,Visual,OTHER,0.3;0.6;1.2;2.4,0.6,0.349480969,SC,S,1.884564187
Human,6,1,1,192,Visual,OTHER,0.3;0.6;1.2;2.4,1.2,0.702422145,SC,S,0.602525351
Human,6,1,1,193,Visual,OTHER,0.3;0.6;1.2;2.4,1.2,0.723707665,SC,S,1.07453446
Human,6,1,1,194,Visual,OTHER,0.3;0.6;1.2;2.4,2.4,1.450980392,SC,L,1.454957378
Human,6,1,1,195,Visual,OTHER,0.3;0.6;1.2;2.4,1.2,2.03,SC,L,0.263630545
Human,6,1,1,196,Visual,OTHER,0.3;0.6;1.2;2.4,0.6,1.01,SC,S,1.117465015
Human,6,1,1,197,Visual,OTHER,0.3;0.6;1.2;2.4,2.4,4.189705882,SC,L,0.490098129
Human,6,1,1,198,Visual,OTHER,0.3;0.6;1.2;2.4,1.2,2.089705882,SC,L,2.048403631
Human,6,1,1,199,Visual,OTHER,0.3;0.6;1.2;2.4,0.3,0.514705882,SC,S,0.781831507
Human,6,1,1,200,Visual,OTHER,0.3;0.6;1.2;2.4,2.4,1.330065359,SC,S,1.607319796
Human,8,1,1,1,Visual,OTHER,0.3;0.6;1.2;2.4,0.3,0.183823529,SC,S,3.80984701
Human,8,1,1,2,Visual,OTHER,0.3;0.6;1.2;2.4,1.2,0.746323529,SC,S,1.251104113
Human,8,1,1,3,Visual,OTHER,0.3;0.6;1.2;2.4,2.4,1.496323529,SC,S,1.344148288
Human,8,1,1,4,Visual,OTHER,0.3;0.6;1.2;2.4,2.4,3.710882353,SC,L,0.890283391
Human,8,1,1,5,Visual,OTHER,0.3;0.6;1.2;2.4,0.3,0.455882353,SC,L,1.317627154
Human,8,1,1,6,Visual,OTHER,0.3;0.6;1.2;2.4,2.4,3.710882353,SC,L,0.629366618
Human,8,1,1,7,Visual,OTHER,0.3;0.6;1.2;2.4,0.6,0.891176471,SC,S,1.236532114
Human,8,1,1,8,Visual,OTHER,0.3;0.6;1.2;2.4,0.3,0.455882353,SC,L,1.32891582
Human,8,1,1,9,Visual,OTHER,0.3;0.6;1.2;2.4,0.6,0.920882353,SC,L,1.45350861
Human,8,1,1,10,Visual,OTHER,0.3;0.6;1.2;2.4,1.2,1.850882353,SC,L,0.785224879
Human,8,1,1,11,Visual,OTHER,0.3;0.6;1.2;2.4,0.3,0.196078431,SC,S,1.038148093
Human,8,1,1,12,Visual,OTHER,0.3;0.6;1.2;2.4,2.4,3.591176471,SC,L,0.733305833
Human,8,1,1,13,Visual,OTHER,0.3;0.6;1.2;2.4,0.3,0.196078431,SC,S,1.108083966
Human,8,1,1,14,Visual,OTHER,0.3;0.6;1.2;2.4,0.6,0.409736308,SC,S,0.81295617
Human,8,1,1,15,Visual,OTHER,0.3;0.6;1.2;2.4,1.2,1.731470588,SC,L,0.722600663
Human,8,1,1,16,Visual,OTHER,0.3;0.6;1.2;2.4,2.4,3.471470588,SC,L,1.587456652
Human,8,1,1,17,Visual,OTHER,0.3;0.6;1.2;2.4,2.4,3.351764706,SC,L,0.659355823
Human,8,1,1,18,Visual,OTHER,0.3;0.6;1.2;2.4,0.3,0.411764706,SC,L,0.83758615
Human,8,1,1,19,Visual,OTHER,0.3;0.6;1.2;2.4,1.2,0.852941176,SC,S,1.05310617
Human,8,1,1,20,Visual,OTHER,0.3;0.6;1.2;2.4,2.4,3.232058824,SC,L,0.687229291
Human,8,1,1,21,Visual,OTHER,0.3;0.6;1.2;2.4,1.2,0.88453159,SC,S,0.927263075
Human,8,1,1,22,Visual,OTHER,0.3;0.6;1.2;2.4,2.4,1.773420479,SC,S,0.79736328
Human,8,1,1,23,Visual,OTHER,0.3;0.6;1.2;2.4,2.4,1.841628959,SC,S,1.694799944
Human,8,1,1,24,Visual,OTHER,0.3;0.6;1.2;2.4,0.3,0.382352941,SC,L,1.040803859
Human,8,1,1,25,Visual,OTHER,0.3;0.6;1.2;2.4,0.6,0.772352941,SC,L,0.690851613
Human,8,1,1,26,Visual,OTHER,0.3;0.6;1.2;2.4,0.6,0.475294118,SC,L,2.042154381
Human,8,1,1,27,Visual,OTHER,0.3;0.6;1.2;2.4,0.3,0.382352941,SC,L,1.247186873
Human,8,1,1,28,Visual,OTHER,0.3;0.6;1.2;2.4,0.6,0.457013575,SC,S,3.395152396
Human,8,1,1,29,Visual,OTHER,0.3;0.6;1.2;2.4,1.2,1.552352941,SC,L,0.714244268
Human,8,1,1,30,Visual,OTHER,0.3;0.6;1.2;2.4,0.6,0.475294118,SC,S,2.967309658
Human,8,1,1,31,Visual,OTHER,0.3;0.6;1.2;2.4,0.3,0.235294118,SC,S,1.166056817
Human,8,1,1,32,Visual,OTHER,0.3;0.6;1.2;2.4,0.6,0.475294118,SC,L,2.239728814
Human,8,1,1,33,Visual,OTHER,0.3;0.6;1.2;2.4,0.6,0.772352941,SC,S,2.399135441
Human,8,1,1,34,Visual,OTHER,0.3;0.6;1.2;2.4,2.4,3.232058824,SC,L,0.663688422
Human,8,1,1,35,Visual,OTHER,0.3;0.6;1.2;2.4,2.4,1.773420479,SC,S,0.82283062
Human,8,1,1,36,Visual,OTHER,0.3;0.6;1.2;2.4,0.3,0.217864924,SC,S,1.637099974
Human,8,1,1,37,Visual,OTHER,0.3;0.6;1.2;2.4,0.6,0.457013575,SC,S,2.19812584
Human,8,1,1,38,Visual,OTHER,0.3;0.6;1.2;2.4,1.2,0.918552036,SC,S,0.866639891
Human,8,1,1,39,Visual,OTHER,0.3;0.6;1.2;2.4,2.4,1.841628959,SC,S,1.525143352
Human,8,1,1,40,Visual,OTHER,0.3;0.6;1.2;2.4,0.6,0.742647059,SC,L,1.333647176
Human,8,1,1,41,Visual,OTHER,0.3;0.6;1.2;2.4,1.2,1.492647059,SC,L,0.579110821
Human,8,1,1,42,Visual,OTHER,0.3;0.6;1.2;2.4,0.6,0.742647059,SC,S,5.173323498
Human,8,1,1,43,Visual,OTHER,0.3;0.6;1.2;2.4,0.6,0.457013575,SC,L,1.488661436
Human,8,1,1,44,Visual,OTHER,0.3;0.6;1.2;2.4,1.2,1.612058824,SC,L,0.765362177
Human,8,1,1,45,Visual,OTHER,0.3;0.6;1.2;2.4,2.4,3.232058824,SC,L,0.763397973
Human,8,1,1,46,Visual,OTHER,0.3;0.6;1.2;2.4,0.3,0.397058824,SC,L,1.284414384
Human,8,1,1,47,Visual,OTHER,0.3;0.6;1.2;2.4,1.2,0.918552036,SC,S,2.289171399
Human,8,1,1,48,Visual,OTHER,0.3;0.6;1.2;2.4,0.3,0.382352941,SC,L,0.482946921
Human,8,1,1,49,Visual,OTHER,0.3;0.6;1.2;2.4,1.2,1.552352941,SC,L,0.657287175
Human,8,1,1,50,Visual,OTHER,0.3;0.6;1.2;2.4,0.6,0.742647059,SC,L,1.076198173
Human,8,1,1,51,Visual,OTHER,0.3;0.6;1.2;2.4,2.4,2.992647059,SC,L,0.560322138
Human,8,1,1,52,Visual,OTHER,0.3;0.6;1.2;2.4,0.6,0.475294118,SC,S,0.726896134
Human,8,1,1,53,Visual,OTHER,0.3;0.6;1.2;2.4,0.3,0.352941176,SC,L,2.766743791
Human,8,1,1,54,Visual,OTHER,0.3;0.6;1.2;2.4,1.2,1.432941176,SC,L,0.657907498
Human,8,1,1,55,Visual,OTHER,0.3;0.6;1.2;2.4,1.2,1.432941176,SC,L,0.636553003
Human,8,1,1,56,Visual,OTHER,0.3;0.6;1.2;2.4,1.2,1.373235294,SC,L,1.661918314
Human,8,1,1,57,Visual,OTHER,0.3;0.6;1.2;2.4,2.4,2.753235294,SC,S,1.46597936
Human,8,1,1,58,Visual,OTHER,0.3;0.6;1.2;2.4,0.3,0.245098039,SC,S,1.628278412
Human,8,1,1,59,Visual,OTHER,0.3;0.6;1.2;2.4,0.6,0.712941176,SC,L,0.977548454
Human,8,1,1,60,Visual,OTHER,0.3;0.6;1.2;2.4,0.6,0.495098039,SC,S,1.262944579
Human,8,1,1,61,Visual,OTHER,0.3;0.6;1.2;2.4,0.6,0.516624041,SC,S,1.375670642
Human,8,1,1,62,Visual,OTHER,0.3;0.6;1.2;2.4,1.2,1.038363171,SC,S,1.39861443
Human,8,1,1,63,Visual,OTHER,0.3;0.6;1.2;2.4,1.2,1.038363171,SC,S,1.864047817
Human,8,1,1,64,Visual,OTHER,0.3;0.6;1.2;2.4,0.3,0.267379679,SC,L,1.404023463
Human,8,1,1,65,Visual,OTHER,0.3;0.6;1.2;2.4,1.2,1.373235294,SC,S,1.7670861
Human,8,1,1,66,Visual,OTHER,0.3;0.6;1.2;2.4,1.2,1.432941176,SC,L,0.595813953
Human,8,1,1,67,Visual,OTHER,0.3;0.6;1.2;2.4,0.3,0.245098039,SC,S,1.210370798
Human,8,1,1,68,Visual,OTHER,0.3;0.6;1.2;2.4,1.2,0.995098039,SC,S,1.773631637
Human,8,1,1,69,Visual,OTHER,0.3;0.6;1.2;2.4,0.6,0.683235294,SC,L,0.736561093
Human,8,1,1,70,Visual,OTHER,0.3;0.6;1.2;2.4,0.3,0.255754476,SC,S,0.81819767
Human,8,1,1,71,Visual,OTHER,0.3;0.6;1.2;2.4,0.6,0.516624041,SC,L,2.294988546
Human,8,1,1,72,Visual,OTHER,0.3;0.6;1.2;2.4,2.4,2.872941176,SC,L,0.597643527
Human,8,1,1,73,Visual,OTHER,0.3;0.6;1.2;2.4,0.3,0.245098039,SC,S,1.952470211
Human,8,1,1,74,Visual,OTHER,0.3;0.6;1.2;2.4,1.2,1.432941176,SC,S,1.181233744
Human,8,1,1,75,Visual,OTHER,0.3;0.6;1.2;2.4,0.6,0.475294118,SC,L,2.866437946
Human,8,1,1,76,Visual,OTHER,0.3;0.6;1.2;2.4,0.6,0.772352941,SC,L,0.681741171
Human,8,1,1,77,Visual,OTHER,0.3;0.6;1.2;2.4,0.3,0.226244344,SC,S,2.068790222
Human,8,1,1,78,Visual,OTHER,0.3;0.6;1.2;2.4,2.4,3.112352941,SC,S,1.894110375
Human,8,1,1,79,Visual,OTHER,0.3;0.6;1.2;2.4,2.4,3.232058824,SC,L,0.58625555
Human,8,1,1,80,Visual,OTHER,0.3;0.6;1.2;2.4,2.4,3.232058824,SC,L,1.024069032
Human,8,1,1,81,Visual,OTHER,0.3;0.6;1.2;2.4,1.2,0.88453159,SC,S,1.392718196
Human,8,1,1,82,Visual,OTHER,0.3;0.6;1.2;2.4,1.2,1.552352941,SC,L,0.623909891
Human,8,1,1,83,Visual,OTHER,0.3;0.6;1.2;2.4,1.2,0.918552036,SC,S,1.459150981
Human,8,1,1,84,Visual,OTHER,0.3;0.6;1.2;2.4,1.2,1.552352941,SC,L,0.670513179
Human,8,1,1,85,Visual,OTHER,0.3;0.6;1.2;2.4,0.3,0.367647059,SC,L,0.639714989
Human,8,1,1,86,Visual,OTHER,0.3;0.6;1.2;2.4,1.2,1.492647059,SC,L,0.574511076
Human,8,1,1,87,Visual,OTHER,0.3;0.6;1.2;2.4,0.3,0.367647059,SC,L,1.353466108
Human,8,1,1,88,Visual,OTHER,0.3;0.6;1.2;2.4,0.6,0.495098039,SC,S,0.807474993
Human,8,1,1,89,Visual,OTHER,0.3;0.6;1.2;2.4,0.6,0.712941176,SC,L,0.825357794
Human,8,1,1,90,Visual,OTHER,0.3;0.6;1.2;2.4,0.3,0.245098039,SC,S,1.219046561
Human,8,1,1,91,Visual,OTHER,0.3;0.6;1.2;2.4,0.3,0.338235294,SC,S,2.407921686
Human,8,1,1,92,Visual,OTHER,0.3;0.6;1.2;2.4,0.3,0.352941176,SC,S,0.59133465
Human,8,1,1,93,Visual,OTHER,0.3;0.6;1.2;2.4,1.2,0.955294118,SC,S,0.827557449
Human,8,1,1,94,Visual,OTHER,0.3;0.6;1.2;2.4,2.4,1.915294118,SC,L,0.826478601
Human,8,1,1,95,Visual,OTHER,0.3;0.6;1.2;2.4,0.3,0.382352941,SC,S,2.169845766
Human,8,1,1,96,Visual,OTHER,0.3;0.6;1.2;2.4,1.2,0.88453159,SC,S,2.08738662
Human,8,1,1,97,Visual,OTHER,0.3;0.6;1.2;2.4,0.3,0.217864924,SC,S,0.993620093
Human,8,1,1,98,Visual,OTHER,0.3;0.6;1.2;2.4,2.4,3.232058824,SC,L,1.202375125
Human,8,1,1,99,Visual,OTHER,0.3;0.6;1.2;2.4,2.4,3.112352941,SC,L,0.943367014
