Species,Subj_idx,Session,Block,Trial,Stim,Procedure,Method,Parameter,SOA,Stim_Type_1,Stim_Dur_1,Stim_Type_2,Stim_Dur_2,Accuracy,Reaction_Time
Human,1,1,1,1,Tactile,Training,Adaptive,Duration,0.3,Tactile,0.7,Tactile,1,1,0.816
Human,1,1,1,2,Tactile,Training,Adaptive,Duration,0.29,Tactile,0.7,Tactile,0.99,1,0.824
Human,1,1,1,3,Tactile,Training,Adaptive,Duration,0.28,Tactile,0.7,Tactile,0.98,1,0.86
Human,1,1,1,4,Tactile,Training,Adaptive,Duration,0.27,Tactile,0.7,Tactile,0.97,1,0.701
Human,1,1,1,5,Tactile,Training,Adaptive,Duration,0.26,Tactile,0.7,Tactile,0.96,1,0.967
Human,1,1,1,1,Tactile,TOJ,Adaptive,Duration,0.3,Tactile,0.7,Tactile,1,1,0.591
Human,1,1,1,2,Tactile,TOJ,Adaptive,Duration,0.285,Tactile,0.7,Tactile,0.985,1,0.731
Human,1,1,1,3,Tactile,TOJ,Adaptive,Duration,0.27,Tactile,0.7,Tactile,0.97,1,0.703
Human,1,1,1,4,Tactile,TOJ,Adaptive,Duration,0.255,Tactile,0.7,Tactile,0.955,1,0.851
Human,1,1,1,5,Tactile,TOJ,Adaptive,Duration,0.24,Tactile,0.7,Tactile,0.94,1,0.984
Human,1,1,1,6,Tactile,TOJ,Adaptive,Duration,0.225,Tactile,0.7,Tactile,0.925,1,0.76
Human,1,1,1,7,Tactile,TOJ,Adaptive,Duration,0.27,Tactile,0.7,Tactile,0.97,0,0.65
Human,1,1,1,8,Tactile,TOJ,Adaptive,Duration,0.255,Tactile,0.955,Tactile,0.7,0,0.777
Human,1,1,1,9,Tactile,TOJ,Adaptive,Duration,0.24,Tactile,0.7,Tactile,0.94,0,0.745
Human,1,1,1,10,Tactile,TOJ,Adaptive,Duration,0.225,Tactile,0.7,Tactile,0.925,1,0.755
Human,1,1,1,11,Tactile,TOJ,Adaptive,Duration,0.21,Tactile,0.7,Tactile,0.91,1,0.83
Human,1,1,1,12,Tactile,TOJ,Adaptive,Duration,0.195,Tactile,0.7,Tactile,0.895,1,0.601
Human,1,1,1,13,Tactile,TOJ,Adaptive,Duration,0.18,Tactile,0.7,Tactile,0.88,1,0.614
Human,1,1,1,14,Tactile,TOJ,Adaptive,Duration,0.165,Tactile,0.7,Tactile,0.865,1,0.868
Human,1,1,1,15,Tactile,TOJ,Adaptive,Duration,0.15,Tactile,0.7,Tactile,0.85,1,0.575
Human,1,1,1,16,Tactile,TOJ,Adaptive,Duration,0.135,Tactile,0.7,Tactile,0.835,1,0.606
Human,1,1,1,17,Tactile,TOJ,Adaptive,Duration,0.12,Tactile,0.7,Tactile,0.82,1,0.617
Human,1,1,1,18,Tactile,TOJ,Adaptive,Duration,0.105,Tactile,0.7,Tactile,0.805,1,0.926
Human,1,1,1,19,Tactile,TOJ,Adaptive,Duration,0.09,Tactile,0.7,Tactile,0.79,1,0.748
Human,1,1,1,20,Tactile,TOJ,Adaptive,Duration,0.135,Tactile,0.835,Tactile,0.7,1,0.581
Human,1,1,1,21,Tactile,TOJ,Adaptive,Duration,0.12,Tactile,0.7,Tactile,0.82,0,0.798
Human,1,1,1,22,Tactile,TOJ,Adaptive,Duration,0.165,Tactile,0.865,Tactile,0.7,1,0.729
Human,1,1,1,23,Tactile,TOJ,Adaptive,Duration,0.15,Tactile,0.7,Tactile,0.85,0,0.889
Human,1,1,1,24,Tactile,TOJ,Adaptive,Duration,0.135,Tactile,0.7,Tactile,0.835,1,0.912
Human,1,1,1,25,Tactile,TOJ,Adaptive,Duration,0.12,Tactile,0.82,Tactile,0.7,0,0.876
Human,1,1,1,26,Tactile,TOJ,Adaptive,Duration,0.105,Tactile,0.805,Tactile,0.7,1,0.875
Human,1,1,1,27,Tactile,TOJ,Adaptive,Duration,0.09,Tactile,0.79,Tactile,0.7,1,0.813
Human,1,1,1,28,Tactile,TOJ,Adaptive,Duration,0.075,Tactile,0.775,Tactile,0.7,1,0.754
Human,1,1,1,29,Tactile,TOJ,Adaptive,Duration,0.06,Tactile,0.7,Tactile,0.76,0,0.518
Human,1,1,1,30,Tactile,TOJ,Adaptive,Duration,0.045,Tactile,0.745,Tactile,0.7,0,0.577
Human,1,1,1,31,Tactile,TOJ,Adaptive,Duration,0.035,Tactile,0.7,Tactile,0.735,0,0.852
Human,1,1,1,32,Tactile,TOJ,Adaptive,Duration,0.025,Tactile,0.725,Tactile,0.7,0,0.711
Human,1,1,1,33,Tactile,TOJ,Adaptive,Duration,0.015,Tactile,0.7,Tactile,0.715,0,0.924
Human,1,1,1,34,Tactile,TOJ,Adaptive,Duration,0.045,Tactile,0.7,Tactile,0.745,0,0.76
Human,1,1,1,35,Tactile,TOJ,Adaptive,Duration,0.075,Tactile,0.775,Tactile,0.7,1,0.624
Human,1,1,1,36,Tactile,TOJ,Adaptive,Duration,0.065,Tactile,0.765,Tactile,0.7,1,0.522
Human,1,1,1,37,Tactile,TOJ,Adaptive,Duration,0.055,Tactile,0.7,Tactile,0.755,0,0.69
Human,1,1,1,38,Tactile,TOJ,Adaptive,Duration,0.045,Tactile,0.745,Tactile,0.7,0,0.761
Human,1,1,1,39,Tactile,TOJ,Adaptive,Duration,0.035,Tactile,0.7,Tactile,0.735,0,0.951
Human,1,1,1,40,Tactile,TOJ,Adaptive,Duration,0.025,Tactile,0.7,Tactile,0.725,1,0.738
Human,1,1,1,41,Tactile,TOJ,Adaptive,Duration,0.055,Tactile,0.755,Tactile,0.7,1,0.753
Human,1,1,1,42,Tactile,TOJ,Adaptive,Duration,0.045,Tactile,0.7,Tactile,0.745,0,0.836
Human,1,1,1,43,Tactile,TOJ,Adaptive,Duration,0.075,Tactile,0.775,Tactile,0.7,1,0.584
Human,1,1,1,44,Tactile,TOJ,Adaptive,Duration,0.065,Tactile,0.765,Tactile,0.7,1,0.73
Human,1,1,1,45,Tactile,TOJ,Adaptive,Duration,0.055,Tactile,0.755,Tactile,0.7,1,0.823
Human,1,1,1,46,Tactile,TOJ,Adaptive,Duration,0.045,Tactile,0.7,Tactile,0.745,0,0.788
Human,1,1,1,47,Tactile,TOJ,Adaptive,Duration,0.035,Tactile,0.735,Tactile,0.7,0,0.788
Human,1,1,1,48,Tactile,TOJ,Adaptive,Duration,0.025,Tactile,0.725,Tactile,0.7,1,0.66
Human,1,1,1,49,Tactile,TOJ,Adaptive,Duration,0.015,Tactile,0.7,Tactile,0.715,0,0.822
Human,1,1,1,50,Tactile,TOJ,Adaptive,Duration,0.045,Tactile,0.7,Tactile,0.745,0,0.822
Human,1,1,1,1,Visual,Training,Adaptive,Duration,0.3,Visual,0.7,Visual,1,0,0.531
Human,1,1,1,2,Visual,Training,Adaptive,Duration,0.33,Visual,0.7,Visual,1.03,1,0.825
Human,1,1,1,3,Visual,Training,Adaptive,Duration,0.32,Visual,0.7,Visual,1.02,1,0.982
Human,1,1,1,4,Visual,Training,Adaptive,Duration,0.31,Visual,0.7,Visual,1.01,1,0.719
Human,1,1,1,5,Visual,Training,Adaptive,Duration,0.3,Visual,0.7,Visual,1,1,0.653
Human,1,1,1,1,Visual,TOJ,Adaptive,Duration,0.3,Visual,0.7,Visual,1,0,0.637
Human,1,1,1,2,Visual,TOJ,Adaptive,Duration,0.285,Visual,0.7,Visual,0.985,1,0.594
Human,1,1,1,3,Visual,TOJ,Adaptive,Duration,0.27,Visual,0.7,Visual,0.97,0,0.87
Human,1,1,1,4,Visual,TOJ,Adaptive,Duration,0.255,Visual,0.7,Visual,0.955,1,0.525
Human,1,1,1,5,Visual,TOJ,Adaptive,Duration,0.24,Visual,0.7,Visual,0.94,1,0.771
Human,1,1,1,6,Visual,TOJ,Adaptive,Duration,0.225,Visual,0.7,Visual,0.925,1,0.639
Human,1,1,1,7,Visual,TOJ,Adaptive,Duration,0.21,Visual,0.7,Visual,0.91,1,0.617
Human,1,1,1,8,Visual,TOJ,Adaptive,Duration,0.195,Visual,0.7,Visual,0.895,0,0.578
Human,1,1,1,9,Visual,TOJ,Adaptive,Duration,0.18,Visual,0.7,Visual,0.88,0,0.684
Human,1,1,1,10,Visual,TOJ,Adaptive,Duration,0.165,Visual,0.7,Visual,0.865,0,0.975
Human,1,1,1,11,Visual,TOJ,Adaptive,Duration,0.15,Visual,0.7,Visual,0.85,1,0.675
Human,1,1,1,12,Visual,TOJ,Adaptive,Duration,0.195,Visual,0.7,Visual,0.895,1,0.936
Human,1,1,1,13,Visual,TOJ,Adaptive,Duration,0.18,Visual,0.7,Visual,0.88,1,0.511
Human,1,1,1,14,Visual,TOJ,Adaptive,Duration,0.165,Visual,0.7,Visual,0.865,1,0.596
Human,1,1,1,15,Visual,TOJ,Adaptive,Duration,0.15,Visual,0.7,Visual,0.85,0,0.506
Human,1,1,1,16,Visual,TOJ,Adaptive,Duration,0.135,Visual,0.7,Visual,0.835,1,0.781
Human,1,1,1,17,Visual,TOJ,Adaptive,Duration,0.12,Visual,0.7,Visual,0.82,0,0.711
Human,1,1,1,18,Visual,TOJ,Adaptive,Duration,0.105,Visual,0.7,Visual,0.805,0,0.682
Human,1,1,1,19,Visual,TOJ,Adaptive,Duration,0.09,Visual,0.7,Visual,0.79,0,0.716
Human,1,1,1,20,Visual,TOJ,Adaptive,Duration,0.075,Visual,0.7,Visual,0.775,1,0.896
Human,1,1,1,21,Visual,TOJ,Adaptive,Duration,0.12,Visual,0.7,Visual,0.82,0,0.708
Human,1,1,1,22,Visual,TOJ,Adaptive,Duration,0.105,Visual,0.7,Visual,0.805,0,0.578
Human,1,1,1,23,Visual,TOJ,Adaptive,Duration,0.09,Visual,0.7,Visual,0.79,0,0.598
Human,1,1,1,24,Visual,TOJ,Adaptive,Duration,0.135,Visual,0.7,Visual,0.835,1,0.663
Human,1,1,1,25,Visual,TOJ,Adaptive,Duration,0.12,Visual,0.7,Visual,0.82,1,0.77
Human,1,1,1,26,Visual,TOJ,Adaptive,Duration,0.105,Visual,0.7,Visual,0.805,1,0.638
Human,1,1,1,27,Visual,TOJ,Adaptive,Duration,0.09,Visual,0.7,Visual,0.79,0,0.806
Human,1,1,1,28,Visual,TOJ,Adaptive,Duration,0.135,Visual,0.7,Visual,0.835,0,0.681
Human,1,1,1,29,Visual,TOJ,Adaptive,Duration,0.18,Visual,0.7,Visual,0.88,0,0.593
Human,1,1,1,30,Visual,TOJ,Adaptive,Duration,0.225,Visual,0.7,Visual,0.925,0,0.64
Human,1,1,1,31,Visual,TOJ,Adaptive,Duration,0.215,Visual,0.7,Visual,0.915,0,0.617
Human,1,1,1,32,Visual,TOJ,Adaptive,Duration,0.205,Visual,0.7,Visual,0.905,0,0.964
Human,1,1,1,33,Visual,TOJ,Adaptive,Duration,0.195,Visual,0.7,Visual,0.895,0,0.539
Human,1,1,1,34,Visual,TOJ,Adaptive,Duration,0.185,Visual,0.7,Visual,0.885,1,0.553
Human,1,1,1,35,Visual,TOJ,Adaptive,Duration,0.175,Visual,0.7,Visual,0.875,1,0.924
Human,1,1,1,36,Visual,TOJ,Adaptive,Duration,0.165,Visual,0.7,Visual,0.865,1,0.953
Human,1,1,1,37,Visual,TOJ,Adaptive,Duration,0.155,Visual,0.7,Visual,0.855,1,0.521
Human,1,1,1,38,Visual,TOJ,Adaptive,Duration,0.145,Visual,0.7,Visual,0.845,1,0.966
Human,1,1,1,39,Visual,TOJ,Adaptive,Duration,0.135,Visual,0.7,Visual,0.835,0,0.85
Human,1,1,1,40,Visual,TOJ,Adaptive,Duration,0.125,Visual,0.7,Visual,0.825,0,0.662
Human,1,1,1,41,Visual,TOJ,Adaptive,Duration,0.115,Visual,0.7,Visual,0.815,0,0.566
Human,1,1,1,42,Visual,TOJ,Adaptive,Duration,0.105,Visual,0.7,Visual,0.805,0,0.75
Human,1,1,1,43,Visual,TOJ,Adaptive,Duration,0.095,Visual,0.7,Visual,0.795,0,0.598
Human,1,1,1,44,Visual,TOJ,Adaptive,Duration,0.125,Visual,0.7,Visual,0.825,0,0.827
Human,1,1,1,45,Visual,TOJ,Adaptive,Duration,0.155,Visual,0.7,Visual,0.855,1,0.658
Human,1,1,1,46,Visual,TOJ,Adaptive,Duration,0.145,Visual,0.7,Visual,0.845,1,0.589
Human,1,1,1,47,Visual,TOJ,Adaptive,Duration,0.135,Visual,0.7,Visual,0.835,0,0.807
Human,1,1,1,48,Visual,TOJ,Adaptive,Duration,0.125,Visual,0.7,Visual,0.825,1,0.97
Human,1,1,1,49,Visual,TOJ,Adaptive,Duration,0.115,Visual,0.7,Visual,0.815,1,0.657
Human,1,1,1,50,Visual,TOJ,Adaptive,Duration,0.105,Visual,0.7,Visual,0.805,0,0.968
Human,1,1,1,1,Auditory,Training,Adaptive,Duration,0.3,Auditory,0.7,Auditory,1,1,0.55
Human,1,1,1,2,Auditory,Training,Adaptive,Duration,0.29,Auditory,0.99,Auditory,0.7,1,0.784
Human,1,1,1,3,Auditory,Training,Adaptive,Duration,0.28,Auditory,0.7,Auditory,0.98,1,0.509
Human,1,1,1,4,Auditory,Training,Adaptive,Duration,0.27,Auditory,0.7,Auditory,0.97,1,0.887
Human,1,1,1,5,Auditory,Training,Adaptive,Duration,0.26,Auditory,0.7,Auditory,0.96,1,0.755
Human,1,1,1,1,Auditory,TOJ,Adaptive,Duration,0.3,Auditory,0.7,Auditory,1,1,0.839
Human,1,1,1,2,Auditory,TOJ,Adaptive,Duration,0.285,Auditory,0.7,Auditory,0.985,1,0.788
Human,1,1,1,3,Auditory,TOJ,Adaptive,Duration,0.27,Auditory,0.7,Auditory,0.97,1,0.979
Human,1,1,1,4,Auditory,TOJ,Adaptive,Duration,0.255,Auditory,0.7,Auditory,0.955,1,0.682
Human,1,1,1,5,Auditory,TOJ,Adaptive,Duration,0.24,Auditory,0.7,Auditory,0.94,1,0.903
Human,1,1,1,6,Auditory,TOJ,Adaptive,Duration,0.225,Auditory,0.7,Auditory,0.925,1,0.557
Human,1,1,1,7,Auditory,TOJ,Adaptive,Duration,0.21,Auditory,0.91,Auditory,0.7,0,0.602
Human,1,1,1,8,Auditory,TOJ,Adaptive,Duration,0.195,Auditory,0.7,Auditory,0.895,0,0.804
Human,1,1,1,9,Auditory,TOJ,Adaptive,Duration,0.18,Auditory,0.88,Auditory,0.7,0,0.926
Human,1,1,1,10,Auditory,TOJ,Adaptive,Duration,0.165,Auditory,0.7,Auditory,0.865,0,0.718
Human,1,1,1,11,Auditory,TOJ,Adaptive,Duration,0.15,Auditory,0.7,Auditory,0.85,1,0.702
Human,1,1,1,12,Auditory,TOJ,Adaptive,Duration,0.135,Auditory,0.7,Auditory,0.835,1,0.661
Human,1,1,1,13,Auditory,TOJ,Adaptive,Duration,0.12,Auditory,0.82,Auditory,0.7,0,0.517
Human,1,1,1,14,Auditory,TOJ,Adaptive,Duration,0.105,Auditory,0.7,Auditory,0.805,0,0.984
Human,1,1,1,15,Auditory,TOJ,Adaptive,Duration,0.15,Auditory,0.7,Auditory,0.85,0,0.56
Human,1,1,1,16,Auditory,TOJ,Adaptive,Duration,0.135,Auditory,0.7,Auditory,0.835,1,0.519
Human,1,1,1,17,Auditory,TOJ,Adaptive,Duration,0.12,Auditory,0.82,Auditory,0.7,0,0.846
Human,1,1,1,18,Auditory,TOJ,Adaptive,Duration,0.105,Auditory,0.7,Auditory,0.805,0,0.713
Human,1,1,1,19,Auditory,TOJ,Adaptive,Duration,0.15,Auditory,0.85,Auditory,0.7,1,0.604
Human,1,1,1,20,Auditory,TOJ,Adaptive,Duration,0.135,Auditory,0.835,Auditory,0.7,1,0.81
Human,1,1,1,21,Auditory,TOJ,Adaptive,Duration,0.12,Auditory,0.7,Auditory,0.82,0,0.724
Human,1,1,1,22,Auditory,TOJ,Adaptive,Duration,0.105,Auditory,0.805,Auditory,0.7,0,0.99
Human,1,1,1,23,Auditory,TOJ,Adaptive,Duration,0.09,Auditory,0.79,Auditory,0.7,1,0.654
Human,1,1,1,24,Auditory,TOJ,Adaptive,Duration,0.075,Auditory,0.7,Auditory,0.775,0,0.748
Human,1,1,1,25,Auditory,TOJ,Adaptive,Duration,0.12,Auditory,0.82,Auditory,0.7,1,0.527
Human,1,1,1,26,Auditory,TOJ,Adaptive,Duration,0.105,Auditory,0.805,Auditory,0.7,1,0.656
Human,1,1,1,27,Auditory,TOJ,Adaptive,Duration,0.09,Auditory,0.79,Auditory,0.7,1,0.897
Human,1,1,1,28,Auditory,TOJ,Adaptive,Duration,0.075,Auditory,0.7,Auditory,0.775,0,0.805
Human,1,1,1,29,Auditory,TOJ,Adaptive,Duration,0.12,Auditory,0.82,Auditory,0.7,1,0.841
Human,1,1,1,30,Auditory,TOJ,Adaptive,Duration,0.105,Auditory,0.805,Auditory,0.7,1,0.762
Human,1,1,1,31,Auditory,TOJ,Adaptive,Duration,0.095,Auditory,0.795,Auditory,0.7,1,0.669
Human,1,1,1,32,Auditory,TOJ,Adaptive,Duration,0.085,Auditory,0.7,Auditory,0.785,0,0.661
Human,1,1,1,33,Auditory,TOJ,Adaptive,Duration,0.075,Auditory,0.775,Auditory,0.7,0,0.81
Human,1,1,1,34,Auditory,TOJ,Adaptive,Duration,0.065,Auditory,0.7,Auditory,0.765,0,0.949
Human,1,1,1,35,Auditory,TOJ,Adaptive,Duration,0.055,Auditory,0.755,Auditory,0.7,0,0.882
Human,1,1,1,36,Auditory,TOJ,Adaptive,Duration,0.045,Auditory,0.745,Auditory,0.7,1,0.87
Human,1,1,1,37,Auditory,TOJ,Adaptive,Duration,0.035,Auditory,0.735,Auditory,0.7,1,0.585
Human,1,1,1,38,Auditory,TOJ,Adaptive,Duration,0.025,Auditory,0.7,Auditory,0.725,0,0.597
Human,1,1,1,39,Auditory,TOJ,Adaptive,Duration,0.055,Auditory,0.7,Auditory,0.755,0,0.592
Human,1,1,1,40,Auditory,TOJ,Adaptive,Duration,0.085,Auditory,0.785,Auditory,0.7,1,0.538
Human,1,1,1,41,Auditory,TOJ,Adaptive,Duration,0.075,Auditory,0.7,Auditory,0.775,0,0.571
Human,1,1,1,42,Auditory,TOJ,Adaptive,Duration,0.105,Auditory,0.7,Auditory,0.805,0,0.61
Human,1,1,1,43,Auditory,TOJ,Adaptive,Duration,0.135,Auditory,0.7,Auditory,0.835,0,0.729
Human,1,1,1,44,Auditory,TOJ,Adaptive,Duration,0.165,Auditory,0.865,Auditory,0.7,1,0.916
Human,1,1,1,45,Auditory,TOJ,Adaptive,Duration,0.155,Auditory,0.855,Auditory,0.7,1,0.982
Human,1,1,1,46,Auditory,TOJ,Adaptive,Duration,0.145,Auditory,0.7,Auditory,0.845,0,0.969
Human,1,1,1,47,Auditory,TOJ,Adaptive,Duration,0.135,Auditory,0.7,Auditory,0.835,1,0.898
Human,1,1,1,48,Auditory,TOJ,Adaptive,Duration,0.125,Auditory,0.825,Auditory,0.7,0,0.807
Human,1,1,1,49,Auditory,TOJ,Adaptive,Duration,0.115,Auditory,0.7,Auditory,0.815,0,0.531
Human,1,1,1,50,Auditory,TOJ,Adaptive,Duration,0.105,Auditory,0.7,Auditory,0.805,1,0.837
Human,2,2,1,1,Visual,Training,Adaptive,Duration,0.3,Visual,0.7,Visual,1,1,0.574
Human,2,2,1,2,Visual,Training,Adaptive,Duration,0.29,Visual,0.7,Visual,0.99,0,0.781
Human,2,2,1,3,Visual,Training,Adaptive,Duration,0.32,Visual,0.7,Visual,1.02,1,0.557
Human,2,2,1,4,Visual,Training,Adaptive,Duration,0.31,Visual,0.7,Visual,1.01,0,0.701
Human,2,2,1,5,Visual,Training,Adaptive,Duration,0.34,Visual,0.7,Visual,1.04,0,0.605
Human,2,2,1,1,Visual,TOJ,Adaptive,Duration,0.3,Visual,0.7,Visual,1,1,0.838
Human,2,2,1,2,Visual,TOJ,Adaptive,Duration,0.285,Visual,0.7,Visual,0.985,1,0.593
Human,2,2,1,3,Visual,TOJ,Adaptive,Duration,0.33,Visual,0.7,Visual,1.03,1,0.658
Human,2,2,1,4,Visual,TOJ,Adaptive,Duration,0.375,Visual,0.7,Visual,1.075,1,0.843
Human,2,2,1,5,Visual,TOJ,Adaptive,Duration,0.42,Visual,0.7,Visual,1.12,1,0.789
Human,2,2,1,6,Visual,TOJ,Adaptive,Duration,0.405,Visual,0.7,Visual,1.105,1,0.96
Human,2,2,1,7,Visual,TOJ,Adaptive,Duration,0.39,Visual,0.7,Visual,1.09,1,0.698
Human,2,2,1,8,Visual,TOJ,Adaptive,Duration,0.375,Visual,0.7,Visual,1.075,0,0.694
Human,2,2,1,9,Visual,TOJ,Adaptive,Duration,0.36,Visual,0.7,Visual,1.06,1,0.85
Human,2,2,1,10,Visual,TOJ,Adaptive,Duration,0.345,Visual,0.7,Visual,1.045,0,0.79
Human,2,2,1,11,Visual,TOJ,Adaptive,Duration,0.33,Visual,0.7,Visual,1.03,0,0.766
Human,2,2,1,12,Visual,TOJ,Adaptive,Duration,0.315,Visual,0.7,Visual,1.015,1,0.709
Human,2,2,1,13,Visual,TOJ,Adaptive,Duration,0.36,Visual,0.7,Visual,1.06,0,0.602
Human,2,2,1,14,Visual,TOJ,Adaptive,Duration,0.345,Visual,0.7,Visual,1.045,1,0.774
Human,2,2,1,15,Visual,TOJ,Adaptive,Duration,0.33,Visual,0.7,Visual,1.03,0,0.886
Human,2,2,1,16,Visual,TOJ,Adaptive,Duration,0.315,Visual,0.7,Visual,1.015,0,0.971
Human,2,2,1,17,Visual,TOJ,Adaptive,Duration,0.36,Visual,0.7,Visual,1.06,0,0.726
Human,2,2,1,18,Visual,TOJ,Adaptive,Duration,0.345,Visual,0.7,Visual,1.045,0,0.856
Human,2,2,1,19,Visual,TOJ,Adaptive,Duration,0.33,Visual,0.7,Visual,1.03,0,0.921
Human,2,2,1,20,Visual,TOJ,Adaptive,Duration,0.315,Visual,0.7,Visual,1.015,0,0.856
Human,2,2,1,21,Visual,TOJ,Adaptive,Duration,0.3,Visual,0.7,Visual,1,0,0.801
Human,2,2,1,22,Visual,TOJ,Adaptive,Duration,0.345,Visual,0.7,Visual,1.045,0,0.927
Human,2,2,1,23,Visual,TOJ,Adaptive,Duration,0.33,Visual,0.7,Visual,1.03,0,0.552
Human,2,2,1,24,Visual,TOJ,Adaptive,Duration,0.315,Visual,0.7,Visual,1.015,0,0.705
Human,2,2,1,25,Visual,TOJ,Adaptive,Duration,0.36,Visual,0.7,Visual,1.06,0,0.833
Human,2,2,1,26,Visual,TOJ,Adaptive,Duration,0.405,Visual,0.7,Visual,1.105,0,0.763
Human,2,2,1,27,Visual,TOJ,Adaptive,Duration,0.45,Visual,0.7,Visual,1.15,0,0.872
Human,2,2,1,28,Visual,TOJ,Adaptive,Duration,0.435,Visual,0.7,Visual,1.135,0,0.717
Human,2,2,1,29,Visual,TOJ,Adaptive,Duration,0.42,Visual,0.7,Visual,1.12,1,0.945
Human,2,2,1,30,Visual,TOJ,Adaptive,Duration,0.405,Visual,0.7,Visual,1.105,0,0.641
Human,2,2,1,31,Visual,TOJ,Adaptive,Duration,0.395,Visual,0.7,Visual,1.095,1,0.825
Human,2,2,1,32,Visual,TOJ,Adaptive,Duration,0.385,Visual,0.7,Visual,1.085,0,0.74
Human,2,2,1,33,Visual,TOJ,Adaptive,Duration,0.375,Visual,0.7,Visual,1.075,0,0.723
Human,2,2,1,34,Visual,TOJ,Adaptive,Duration,0.365,Visual,0.7,Visual,1.065,1,0.794
Human,2,2,1,35,Visual,TOJ,Adaptive,Duration,0.395,Visual,0.7,Visual,1.095,1,0.528
Human,2,2,1,36,Visual,TOJ,Adaptive,Duration,0.385,Visual,0.7,Visual,1.085,1,0.722
Human,2,2,1,37,Visual,TOJ,Adaptive,Duration,0.375,Visual,0.7,Visual,1.075,1,0.764
Human,2,2,1,38,Visual,TOJ,Adaptive,Duration,0.365,Visual,0.7,Visual,1.065,0,0.796
Human,2,2,1,39,Visual,TOJ,Adaptive,Duration,0.355,Visual,0.7,Visual,1.055,0,0.525
Human,2,2,1,40,Visual,TOJ,Adaptive,Duration,0.385,Visual,0.7,Visual,1.085,0,0.919
Human,2,2,1,41,Visual,TOJ,Adaptive,Duration,0.375,Visual,0.7,Visual,1.075,0,0.869
Human,2,2,1,42,Visual,TOJ,Adaptive,Duration,0.365,Visual,0.7,Visual,1.065,1,0.888
Human,2,2,1,43,Visual,TOJ,Adaptive,Duration,0.355,Visual,0.7,Visual,1.055,1,0.94
Human,2,2,1,44,Visual,TOJ,Adaptive,Duration,0.345,Visual,0.7,Visual,1.045,0,0.583
Human,2,2,1,45,Visual,TOJ,Adaptive,Duration,0.335,Visual,0.7,Visual,1.035,0,0.766
Human,2,2,1,46,Visual,TOJ,Adaptive,Duration,0.325,Visual,0.7,Visual,1.025,0,0.793
Human,2,2,1,47,Visual,TOJ,Adaptive,Duration,0.315,Visual,0.7,Visual,1.015,1,0.815
Human,2,2,1,48,Visual,TOJ,Adaptive,Duration,0.345,Visual,0.7,Visual,1.045,0,0.607
Human,2,2,1,49,Visual,TOJ,Adaptive,Duration,0.335,Visual,0.7,Visual,1.035,0,0.68
Human,2,2,1,50,Visual,TOJ,Adaptive,Duration,0.365,Visual,0.7,Visual,1.065,0,0.561
Human,2,2,1,1,Auditory,Training,Adaptive,Duration,0.3,Auditory,0.7,Auditory,1,0,0.633
Human,2,2,1,2,Auditory,Training,Adaptive,Duration,0.33,Auditory,1.03,Auditory,0.7,1,0.668
Human,2,2,1,3,Auditory,Training,Adaptive,Duration,0.32,Auditory,0.7,Auditory,1.02,1,0.568
Human,2,2,1,4,Auditory,Training,Adaptive,Duration,0.31,Auditory,0.7,Auditory,1.01,1,0.868
Human,2,2,1,5,Auditory,Training,Adaptive,Duration,0.3,Auditory,1,Auditory,0.7,1,0.856
Human,2,2,1,1,Auditory,TOJ,Adaptive,Duration,0.3,Auditory,0.7,Auditory,1,1,0.924
Human,2,2,1,2,Auditory,TOJ,Adaptive,Duration,0.285,Auditory,0.985,Auditory,0.7,0,0.872
Human,2,2,1,3,Auditory,TOJ,Adaptive,Duration,0.27,Auditory,0.7,Auditory,0.97,0,0.827
Human,2,2,1,4,Auditory,TOJ,Adaptive,Duration,0.255,Auditory,0.7,Auditory,0.955,1,0.563
Human,2,2,1,5,Auditory,TOJ,Adaptive,Duration,0.3,Auditory,0.7,Auditory,1,0,0.55
Human,2,2,1,6,Auditory,TOJ,Adaptive,Duration,0.285,Auditory,0.7,Auditory,0.985,1,0.977
Human,2,2,1,7,Auditory,TOJ,Adaptive,Duration,0.27,Auditory,0.7,Auditory,0.97,1,0.53
Human,2,2,1,8,Auditory,TOJ,Adaptive,Duration,0.255,Auditory,0.7,Auditory,0.955,1,0.793
Human,2,2,1,9,Auditory,TOJ,Adaptive,Duration,0.24,Auditory,0.7,Auditory,0.94,1,0.777
Human,2,2,1,10,Auditory,TOJ,Adaptive,Duration,0.285,Auditory,0.985,Auditory,0.7,1,0.541
Human,2,2,1,11,Auditory,TOJ,Adaptive,Duration,0.27,Auditory,0.7,Auditory,0.97,0,0.992
Human,2,2,1,12,Auditory,TOJ,Adaptive,Duration,0.315,Auditory,0.7,Auditory,1.015,0,0.636
Human,2,2,1,13,Auditory,TOJ,Adaptive,Duration,0.3,Auditory,1,Auditory,0.7,0,0.965
Human,2,2,1,14,Auditory,TOJ,Adaptive,Duration,0.345,Auditory,0.7,Auditory,1.045,1,0.722
Human,2,2,1,15,Auditory,TOJ,Adaptive,Duration,0.33,Auditory,0.7,Auditory,1.03,1,0.639
Human,2,2,1,16,Auditory,TOJ,Adaptive,Duration,0.315,Auditory,0.7,Auditory,1.015,1,0.895
Human,2,2,1,17,Auditory,TOJ,Adaptive,Duration,0.3,Auditory,0.7,Auditory,1,1,0.539
Human,2,2,1,18,Auditory,TOJ,Adaptive,Duration,0.285,Auditory,0.7,Auditory,0.985,1,0.701
Human,2,2,1,19,Auditory,TOJ,Adaptive,Duration,0.33,Auditory,1.03,Auditory,0.7,1,0.611
Human,2,2,1,20,Auditory,TOJ,Adaptive,Duration,0.315,Auditory,0.7,Auditory,1.015,0,0.819
Human,2,2,1,21,Auditory,TOJ,Adaptive,Duration,0.36,Auditory,0.7,Auditory,1.06,0,0.966
Human,2,2,1,22,Auditory,TOJ,Adaptive,Duration,0.345,Auditory,1.045,Auditory,0.7,0,0.666
Human,2,2,1,23,Auditory,TOJ,Adaptive,Duration,0.33,Auditory,0.7,Auditory,1.03,0,0.976
Human,2,2,1,24,Auditory,TOJ,Adaptive,Duration,0.315,Auditory,0.7,Auditory,1.015,1,0.788
Human,2,2,1,25,Auditory,TOJ,Adaptive,Duration,0.3,Auditory,1,Auditory,0.7,0,0.5
Human,2,2,1,26,Auditory,TOJ,Adaptive,Duration,0.285,Auditory,0.7,Auditory,0.985,0,0.583
Human,2,2,1,27,Auditory,TOJ,Adaptive,Duration,0.27,Auditory,0.97,Auditory,0.7,0,0.623
Human,2,2,1,28,Auditory,TOJ,Adaptive,Duration,0.255,Auditory,0.7,Auditory,0.955,0,0.707
Human,2,2,1,29,Auditory,TOJ,Adaptive,Duration,0.24,Auditory,0.7,Auditory,0.94,1,0.978
Human,2,2,1,30,Auditory,TOJ,Adaptive,Duration,0.225,Auditory,0.925,Auditory,0.7,0,0.775
Human,2,2,1,31,Auditory,TOJ,Adaptive,Duration,0.255,Auditory,0.955,Auditory,0.7,0,0.783
Human,2,2,1,32,Auditory,TOJ,Adaptive,Duration,0.245,Auditory,0.7,Auditory,0.945,0,0.776
Human,2,2,1,33,Auditory,TOJ,Adaptive,Duration,0.235,Auditory,0.7,Auditory,0.935,1,0.924
Human,2,2,1,34,Auditory,TOJ,Adaptive,Duration,0.225,Auditory,0.7,Auditory,0.925,1,0.988
Human,2,2,1,35,Auditory,TOJ,Adaptive,Duration,0.255,Auditory,0.7,Auditory,0.955,0,0.927
Human,2,2,1,36,Auditory,TOJ,Adaptive,Duration,0.245,Auditory,0.945,Auditory,0.7,0,0.94
Human,2,2,1,37,Auditory,TOJ,Adaptive,Duration,0.235,Auditory,0.935,Auditory,0.7,1,0.986
Human,2,2,1,38,Auditory,TOJ,Adaptive,Duration,0.225,Auditory,0.7,Auditory,0.925,0,0.895
Human,2,2,1,39,Auditory,TOJ,Adaptive,Duration,0.255,Auditory,0.955,Auditory,0.7,1,0.755
Human,2,2,1,40,Auditory,TOJ,Adaptive,Duration,0.245,Auditory,0.7,Auditory,0.945,0,0.55
Human,2,2,1,41,Auditory,TOJ,Adaptive,Duration,0.235,Auditory,0.7,Auditory,0.935,1,0.845
Human,2,2,1,42,Auditory,TOJ,Adaptive,Duration,0.265,Auditory,0.965,Auditory,0.7,1,0.554
Human,2,2,1,43,Auditory,TOJ,Adaptive,Duration,0.255,Auditory,0.955,Auditory,0.7,1,0.567
Human,2,2,1,44,Auditory,TOJ,Adaptive,Duration,0.245,Auditory,0.7,Auditory,0.945,0,0.75
Human,2,2,1,45,Auditory,TOJ,Adaptive,Duration,0.235,Auditory,0.7,Auditory,0.935,1,0.887
Human,2,2,1,46,Auditory,TOJ,Adaptive,Duration,0.225,Auditory,0.925,Auditory,0.7,0,0.954
Human,2,2,1,47,Auditory,TOJ,Adaptive,Duration,0.255,Auditory,0.955,Auditory,0.7,0,0.814
Human,2,2,1,48,Auditory,TOJ,Adaptive,Duration,0.245,Auditory,0.7,Auditory,0.945,0,0.504
Human,2,2,1,49,Auditory,TOJ,Adaptive,Duration,0.235,Auditory,0.935,Auditory,0.7,0,0.571
Human,2,2,1,50,Auditory,TOJ,Adaptive,Duration,0.225,Auditory,0.925,Auditory,0.7,1,0.894
Human,2,2,1,1,Tactile,Training,Adaptive,Duration,0.3,Tactile,0.7,Tactile,1,0,0.75
Human,2,2,1,2,Tactile,Training,Adaptive,Duration,0.33,Tactile,1.03,Tactile,0.7,1,0.915
Human,2,2,1,3,Tactile,Training,Adaptive,Duration,0.32,Tactile,1.02,Tactile,0.7,1,0.508
Human,2,2,1,4,Tactile,Training,Adaptive,Duration,0.31,Tactile,1.01,Tactile,0.7,1,0.558
Human,2,2,1,5,Tactile,Training,Adaptive,Duration,0.3,Tactile,1,Tactile,0.7,1,0.974
Human,2,2,1,1,Tactile,TOJ,Adaptive,Duration,0.3,Tactile,0.7,Tactile,1,0,0.519
Human,2,2,1,2,Tactile,TOJ,Adaptive,Duration,0.285,Tactile,0.7,Tactile,0.985,1,0.779
Human,2,2,1,3,Tactile,TOJ,Adaptive,Duration,0.27,Tactile,0.7,Tactile,0.97,1,0.505
Human,2,2,1,4,Tactile,TOJ,Adaptive,Duration,0.255,Tactile,0.955,Tactile,0.7,0,0.95
Human,2,2,1,5,Tactile,TOJ,Adaptive,Duration,0.24,Tactile,0.94,Tactile,0.7,1,0.831
Human,2,2,1,6,Tactile,TOJ,Adaptive,Duration,0.225,Tactile,0.925,Tactile,0.7,1,0.674
Human,2,2,1,7,Tactile,TOJ,Adaptive,Duration,0.21,Tactile,0.7,Tactile,0.91,0,0.869
Human,2,2,1,8,Tactile,TOJ,Adaptive,Duration,0.255,Tactile,0.955,Tactile,0.7,1,0.553
Human,2,2,1,9,Tactile,TOJ,Adaptive,Duration,0.3,Tactile,1,Tactile,0.7,0,0.758
Human,2,2,1,10,Tactile,TOJ,Adaptive,Duration,0.285,Tactile,0.985,Tactile,0.7,1,0.697
Human,2,2,1,11,Tactile,TOJ,Adaptive,Duration,0.27,Tactile,0.97,Tactile,0.7,1,0.703
Human,2,2,1,12,Tactile,TOJ,Adaptive,Duration,0.255,Tactile,0.955,Tactile,0.7,1,0.86
Human,2,2,1,13,Tactile,TOJ,Adaptive,Duration,0.3,Tactile,1,Tactile,0.7,0,0.925
Human,2,2,1,14,Tactile,TOJ,Adaptive,Duration,0.285,Tactile,0.985,Tactile,0.7,1,0.654
Human,2,2,1,15,Tactile,TOJ,Adaptive,Duration,0.27,Tactile,0.7,Tactile,0.97,0,0.508
Human,2,2,1,16,Tactile,TOJ,Adaptive,Duration,0.255,Tactile,0.7,Tactile,0.955,1,0.887
Human,2,2,1,17,Tactile,TOJ,Adaptive,Duration,0.24,Tactile,0.7,Tactile,0.94,1,0.889
Human,2,2,1,18,Tactile,TOJ,Adaptive,Duration,0.225,Tactile,0.7,Tactile,0.925,1,0.96
Human,2,2,1,19,Tactile,TOJ,Adaptive,Duration,0.21,Tactile,0.91,Tactile,0.7,0,0.79
Human,2,2,1,20,Tactile,TOJ,Adaptive,Duration,0.195,Tactile,0.7,Tactile,0.895,0,0.876
Human,2,2,1,21,Tactile,TOJ,Adaptive,Duration,0.24,Tactile,0.94,Tactile,0.7,1,0.511
Human,2,2,1,22,Tactile,TOJ,Adaptive,Duration,0.225,Tactile,0.7,Tactile,0.925,0,0.687
Human,2,2,1,23,Tactile,TOJ,Adaptive,Duration,0.27,Tactile,0.97,Tactile,0.7,1,0.943
Human,2,2,1,24,Tactile,TOJ,Adaptive,Duration,0.255,Tactile,0.7,Tactile,0.955,0,0.681
Human,2,2,1,25,Tactile,TOJ,Adaptive,Duration,0.24,Tactile,0.7,Tactile,0.94,1,0.622
Human,2,2,1,26,Tactile,TOJ,Adaptive,Duration,0.225,Tactile,0.7,Tactile,0.925,1,0.509
Human,2,2,1,27,Tactile,TOJ,Adaptive,Duration,0.27,Tactile,0.7,Tactile,0.97,0,0.812
Human,2,2,1,28,Tactile,TOJ,Adaptive,Duration,0.255,Tactile,0.7,Tactile,0.955,1,0.994
Human,2,2,1,29,Tactile,TOJ,Adaptive,Duration,0.24,Tactile,0.7,Tactile,0.94,1,0.939
Human,2,2,1,30,Tactile,TOJ,Adaptive,Duration,0.225,Tactile,0.925,Tactile,0.7,0,0.677
Human,2,2,1,31,Tactile,TOJ,Adaptive,Duration,0.215,Tactile,0.7,Tactile,0.915,0,0.842
Human,2,2,1,32,Tactile,TOJ,Adaptive,Duration,0.245,Tactile,0.7,Tactile,0.945,0,0.761
Human,2,2,1,33,Tactile,TOJ,Adaptive,Duration,0.235,Tactile,0.935,Tactile,0.7,0,0.939
Human,2,2,1,34,Tactile,TOJ,Adaptive,Duration,0.225,Tactile,0.7,Tactile,0.925,0,0.626
Human,2,2,1,35,Tactile,TOJ,Adaptive,Duration,0.215,Tactile,0.915,Tactile,0.7,0,0.973
Human,2,2,1,36,Tactile,TOJ,Adaptive,Duration,0.205,Tactile,0.905,Tactile,0.7,1,0.993
Human,2,2,1,37,Tactile,TOJ,Adaptive,Duration,0.195,Tactile,0.7,Tactile,0.895,0,0.871
Human,2,2,1,38,Tactile,TOJ,Adaptive,Duration,0.185,Tactile,0.7,Tactile,0.885,1,0.519
Human,2,2,1,39,Tactile,TOJ,Adaptive,Duration,0.175,Tactile,0.875,Tactile,0.7,0,0.717
Human,2,2,1,40,Tactile,TOJ,Adaptive,Duration,0.165,Tactile,0.865,Tactile,0.7,1,0.524
Human,2,2,1,41,Tactile,TOJ,Adaptive,Duration,0.195,Tactile,0.7,Tactile,0.895,1,0.97
Human,2,2,1,42,Tactile,TOJ,Adaptive,Duration,0.185,Tactile,0.7,Tactile,0.885,1,0.556
Human,2,2,1,43,Tactile,TOJ,Adaptive,Duration,0.215,Tactile,0.7,Tactile,0.915,0,0.774
Human,2,2,1,44,Tactile,TOJ,Adaptive,Duration,0.205,Tactile,0.7,Tactile,0.905,1,0.926
Human,2,2,1,45,Tactile,TOJ,Adaptive,Duration,0.235,Tactile,0.935,Tactile,0.7,1,0.715
Human,2,2,1,46,Tactile,TOJ,Adaptive,Duration,0.225,Tactile,0.925,Tactile,0.7,1,0.554
Human,2,2,1,47,Tactile,TOJ,Adaptive,Duration,0.215,Tactile,0.7,Tactile,0.915,0,0.543
Human,2,2,1,48,Tactile,TOJ,Adaptive,Duration,0.205,Tactile,0.7,Tactile,0.905,1,1
Human,2,2,1,49,Tactile,TOJ,Adaptive,Duration,0.235,Tactile,0.7,Tactile,0.935,0,0.626
Human,2,2,1,50,Tactile,TOJ,Adaptive,Duration,0.265,Tactile,0.965,Tactile,0.7,1,0.911
Human,3,3,1,1,Visual,Training,Adaptive,Duration,0.3,Visual,0.7,Visual,1,1,0.915
Human,3,3,1,2,Visual,Training,Adaptive,Duration,0.29,Visual,0.7,Visual,0.99,1,0.927
Human,3,3,1,3,Visual,Training,Adaptive,Duration,0.28,Visual,0.7,Visual,0.98,1,0.808
Human,3,3,1,4,Visual,Training,Adaptive,Duration,0.27,Visual,0.7,Visual,0.97,1,0.687
Human,3,3,1,5,Visual,Training,Adaptive,Duration,0.26,Visual,0.7,Visual,0.96,1,0.96
Human,3,3,1,1,Visual,TOJ,Adaptive,Duration,0.3,Visual,0.7,Visual,1,0,0.656
Human,3,3,1,2,Visual,TOJ,Adaptive,Duration,0.285,Visual,0.7,Visual,0.985,0,0.793
Human,3,3,1,3,Visual,TOJ,Adaptive,Duration,0.27,Visual,0.7,Visual,0.97,0,0.584
Human,3,3,1,4,Visual,TOJ,Adaptive,Duration,0.255,Visual,0.7,Visual,0.955,1,0.612
Human,3,3,1,5,Visual,TOJ,Adaptive,Duration,0.24,Visual,0.7,Visual,0.94,1,0.817
Human,3,3,1,6,Visual,TOJ,Adaptive,Duration,0.225,Visual,0.7,Visual,0.925,1,0.926
Human,3,3,1,7,Visual,TOJ,Adaptive,Duration,0.21,Visual,0.7,Visual,0.91,0,0.689
Human,3,3,1,8,Visual,TOJ,Adaptive,Duration,0.195,Visual,0.7,Visual,0.895,0,0.884
Human,3,3,1,9,Visual,TOJ,Adaptive,Duration,0.18,Visual,0.7,Visual,0.88,0,0.763
Human,3,3,1,10,Visual,TOJ,Adaptive,Duration,0.165,Visual,0.7,Visual,0.865,1,0.568
Human,3,3,1,11,Visual,TOJ,Adaptive,Duration,0.15,Visual,0.7,Visual,0.85,1,0.925
Human,3,3,1,12,Visual,TOJ,Adaptive,Duration,0.195,Visual,0.7,Visual,0.895,0,0.996
Human,3,3,1,13,Visual,TOJ,Adaptive,Duration,0.18,Visual,0.7,Visual,0.88,1,0.911
Human,3,3,1,14,Visual,TOJ,Adaptive,Duration,0.165,Visual,0.7,Visual,0.865,1,0.586
Human,3,3,1,15,Visual,TOJ,Adaptive,Duration,0.15,Visual,0.7,Visual,0.85,0,0.733
Human,3,3,1,16,Visual,TOJ,Adaptive,Duration,0.135,Visual,0.7,Visual,0.835,0,0.605
Human,3,3,1,17,Visual,TOJ,Adaptive,Duration,0.12,Visual,0.7,Visual,0.82,0,0.586
Human,3,3,1,18,Visual,TOJ,Adaptive,Duration,0.165,Visual,0.7,Visual,0.865,0,0.827
Human,3,3,1,19,Visual,TOJ,Adaptive,Duration,0.15,Visual,0.7,Visual,0.85,0,0.949
Human,3,3,1,20,Visual,TOJ,Adaptive,Duration,0.135,Visual,0.7,Visual,0.835,0,0.552
Human,3,3,1,21,Visual,TOJ,Adaptive,Duration,0.12,Visual,0.7,Visual,0.82,0,0.867
Human,3,3,1,22,Visual,TOJ,Adaptive,Duration,0.105,Visual,0.7,Visual,0.805,1,0.519
Human,3,3,1,23,Visual,TOJ,Adaptive,Duration,0.09,Visual,0.7,Visual,0.79,1,0.997
Human,3,3,1,24,Visual,TOJ,Adaptive,Duration,0.075,Visual,0.7,Visual,0.775,1,0.692
Human,3,3,1,25,Visual,TOJ,Adaptive,Duration,0.12,Visual,0.7,Visual,0.82,0,0.897
Human,3,3,1,26,Visual,TOJ,Adaptive,Duration,0.165,Visual,0.7,Visual,0.865,1,0.993
Human,3,3,1,27,Visual,TOJ,Adaptive,Duration,0.15,Visual,0.7,Visual,0.85,0,0.913
Human,3,3,1,28,Visual,TOJ,Adaptive,Duration,0.135,Visual,0.7,Visual,0.835,0,0.891
Human,3,3,1,29,Visual,TOJ,Adaptive,Duration,0.12,Visual,0.7,Visual,0.82,1,0.966
Human,3,3,1,30,Visual,TOJ,Adaptive,Duration,0.105,Visual,0.7,Visual,0.805,0,0.749
Human,3,3,1,31,Visual,TOJ,Adaptive,Duration,0.095,Visual,0.7,Visual,0.795,1,0.977
Human,3,3,1,32,Visual,TOJ,Adaptive,Duration,0.085,Visual,0.7,Visual,0.785,1,0.516
Human,3,3,1,33,Visual,TOJ,Adaptive,Duration,0.075,Visual,0.7,Visual,0.775,1,0.903
Human,3,3,1,34,Visual,TOJ,Adaptive,Duration,0.105,Visual,0.7,Visual,0.805,0,0.936
Human,3,3,1,35,Visual,TOJ,Adaptive,Duration,0.135,Visual,0.7,Visual,0.835,0,0.597
Human,3,3,1,36,Visual,TOJ,Adaptive,Duration,0.125,Visual,0.7,Visual,0.825,1,0.68
Human,3,3,1,37,Visual,TOJ,Adaptive,Duration,0.155,Visual,0.7,Visual,0.855,1,0.915
Human,3,3,1,38,Visual,TOJ,Adaptive,Duration,0.145,Visual,0.7,Visual,0.845,0,0.942
Human,3,3,1,39,Visual,TOJ,Adaptive,Duration,0.175,Visual,0.7,Visual,0.875,1,0.795
Human,3,3,1,40,Visual,TOJ,Adaptive,Duration,0.165,Visual,0.7,Visual,0.865,0,0.865
Human,3,3,1,41,Visual,TOJ,Adaptive,Duration,0.195,Visual,0.7,Visual,0.895,0,0.844
Human,3,3,1,42,Visual,TOJ,Adaptive,Duration,0.225,Visual,0.7,Visual,0.925,0,0.842
Human,3,3,1,43,Visual,TOJ,Adaptive,Duration,0.255,Visual,0.7,Visual,0.955,1,0.746
Human,3,3,1,44,Visual,TOJ,Adaptive,Duration,0.245,Visual,0.7,Visual,0.945,1,0.66
Human,3,3,1,45,Visual,TOJ,Adaptive,Duration,0.275,Visual,0.7,Visual,0.975,1,0.791
Human,3,3,1,46,Visual,TOJ,Adaptive,Duration,0.305,Visual,0.7,Visual,1.005,1,0.648
Human,3,3,1,47,Visual,TOJ,Adaptive,Duration,0.295,Visual,0.7,Visual,0.995,0,0.916
Human,3,3,1,48,Visual,TOJ,Adaptive,Duration,0.285,Visual,0.7,Visual,0.985,0,0.527
Human,3,3,1,49,Visual,TOJ,Adaptive,Duration,0.275,Visual,0.7,Visual,0.975,0,0.903
Human,3,3,1,50,Visual,TOJ,Adaptive,Duration,0.265,Visual,0.7,Visual,0.965,1,0.957
Human,3,3,1,1,Tactile,Training,Adaptive,Duration,0.3,Tactile,0.7,Tactile,1,1,0.995
Human,3,3,1,2,Tactile,Training,Adaptive,Duration,0.29,Tactile,0.7,Tactile,0.99,1,0.594
Human,3,3,1,3,Tactile,Training,Adaptive,Duration,0.28,Tactile,0.7,Tactile,0.98,1,0.529
Human,3,3,1,4,Tactile,Training,Adaptive,Duration,0.27,Tactile,0.97,Tactile,0.7,1,0.61
Human,3,3,1,5,Tactile,Training,Adaptive,Duration,0.26,Tactile,0.7,Tactile,0.96,1,0.508
Human,3,3,1,1,Tactile,TOJ,Adaptive,Duration,0.3,Tactile,1,Tactile,0.7,1,0.907
Human,3,3,1,2,Tactile,TOJ,Adaptive,Duration,0.285,Tactile,0.7,Tactile,0.985,0,0.544
Human,3,3,1,3,Tactile,TOJ,Adaptive,Duration,0.27,Tactile,0.97,Tactile,0.7,0,0.634
Human,3,3,1,4,Tactile,TOJ,Adaptive,Duration,0.255,Tactile,0.955,Tactile,0.7,1,0.646
Human,3,3,1,5,Tactile,TOJ,Adaptive,Duration,0.24,Tactile,0.94,Tactile,0.7,1,0.823
Human,3,3,1,6,Tactile,TOJ,Adaptive,Duration,0.225,Tactile,0.925,Tactile,0.7,1,0.618
Human,3,3,1,7,Tactile,TOJ,Adaptive,Duration,0.21,Tactile,0.91,Tactile,0.7,1,0.898
Human,3,3,1,8,Tactile,TOJ,Adaptive,Duration,0.195,Tactile,0.7,Tactile,0.895,0,0.932
Human,3,3,1,9,Tactile,TOJ,Adaptive,Duration,0.18,Tactile,0.7,Tactile,0.88,1,0.693
Human,3,3,1,10,Tactile,TOJ,Adaptive,Duration,0.165,Tactile,0.865,Tactile,0.7,0,0.575
Human,3,3,1,11,Tactile,TOJ,Adaptive,Duration,0.15,Tactile,0.85,Tactile,0.7,1,0.708
Human,3,3,1,12,Tactile,TOJ,Adaptive,Duration,0.135,Tactile,0.7,Tactile,0.835,0,0.879
Human,3,3,1,13,Tactile,TOJ,Adaptive,Duration,0.12,Tactile,0.7,Tactile,0.82,1,0.746
Human,3,3,1,14,Tactile,TOJ,Adaptive,Duration,0.105,Tactile,0.7,Tactile,0.805,1,0.728
Human,3,3,1,15,Tactile,TOJ,Adaptive,Duration,0.09,Tactile,0.7,Tactile,0.79,1,0.515
Human,3,3,1,16,Tactile,TOJ,Adaptive,Duration,0.135,Tactile,0.7,Tactile,0.835,0,0.761
Human,3,3,1,17,Tactile,TOJ,Adaptive,Duration,0.12,Tactile,0.82,Tactile,0.7,0,0.926
Human,3,3,1,18,Tactile,TOJ,Adaptive,Duration,0.105,Tactile,0.805,Tactile,0.7,1,1
Human,3,3,1,19,Tactile,TOJ,Adaptive,Duration,0.09,Tactile,0.79,Tactile,0.7,1,0.931
Human,3,3,1,20,Tactile,TOJ,Adaptive,Duration,0.075,Tactile,0.7,Tactile,0.775,0,0.952
Human,3,3,1,21,Tactile,TOJ,Adaptive,Duration,0.06,Tactile,0.7,Tactile,0.76,1,0.652
Human,3,3,1,22,Tactile,TOJ,Adaptive,Duration,0.045,Tactile,0.7,Tactile,0.745,1,0.649
Human,3,3,1,23,Tactile,TOJ,Adaptive,Duration,0.03,Tactile,0.7,Tactile,0.73,1,0.975
Human,3,3,1,24,Tactile,TOJ,Adaptive,Duration,0.075,Tactile,0.775,Tactile,0.7,1,0.885
Human,3,3,1,25,Tactile,TOJ,Adaptive,Duration,0.06,Tactile,0.7,Tactile,0.76,0,0.551
Human,3,3,1,26,Tactile,TOJ,Adaptive,Duration,0.045,Tactile,0.7,Tactile,0.745,1,0.715
Human,3,3,1,27,Tactile,TOJ,Adaptive,Duration,0.03,Tactile,0.73,Tactile,0.7,0,0.68
Human,3,3,1,28,Tactile,TOJ,Adaptive,Duration,0.075,Tactile,0.775,Tactile,0.7,0,0.839
Human,3,3,1,29,Tactile,TOJ,Adaptive,Duration,0.06,Tactile,0.76,Tactile,0.7,1,0.919
Human,3,3,1,30,Tactile,TOJ,Adaptive,Duration,0.105,Tactile,0.7,Tactile,0.805,1,0.915
Human,3,3,1,31,Tactile,TOJ,Adaptive,Duration,0.135,Tactile,0.7,Tactile,0.835,0,0.588
Human,3,3,1,32,Tactile,TOJ,Adaptive,Duration,0.125,Tactile,0.7,Tactile,0.825,1,0.81
Human,3,3,1,33,Tactile,TOJ,Adaptive,Duration,0.155,Tactile,0.7,Tactile,0.855,0,0.836
Human,3,3,1,34,Tactile,TOJ,Adaptive,Duration,0.145,Tactile,0.7,Tactile,0.845,1,0.674
Human,3,3,1,35,Tactile,TOJ,Adaptive,Duration,0.175,Tactile,0.7,Tactile,0.875,0,0.588
Human,3,3,1,36,Tactile,TOJ,Adaptive,Duration,0.205,Tactile,0.7,Tactile,0.905,0,0.758
Human,3,3,1,37,Tactile,TOJ,Adaptive,Duration,0.195,Tactile,0.7,Tactile,0.895,1,0.651
Human,3,3,1,38,Tactile,TOJ,Adaptive,Duration,0.185,Tactile,0.885,Tactile,0.7,0,0.562
Human,3,3,1,39,Tactile,TOJ,Adaptive,Duration,0.215,Tactile,0.7,Tactile,0.915,1,0.927
Human,3,3,1,40,Tactile,TOJ,Adaptive,Duration,0.205,Tactile,0.7,Tactile,0.905,1,0.731
Human,3,3,1,41,Tactile,TOJ,Adaptive,Duration,0.195,Tactile,0.7,Tactile,0.895,1,0.532
Human,3,3,1,42,Tactile,TOJ,Adaptive,Duration,0.185,Tactile,0.7,Tactile,0.885,1,0.525
Human,3,3,1,43,Tactile,TOJ,Adaptive,Duration,0.175,Tactile,0.7,Tactile,0.875,1,0.935
Human,3,3,1,44,Tactile,TOJ,Adaptive,Duration,0.165,Tactile,0.7,Tactile,0.865,1,0.511
Human,3,3,1,45,Tactile,TOJ,Adaptive,Duration,0.155,Tactile,0.855,Tactile,0.7,0,0.802
Human,3,3,1,46,Tactile,TOJ,Adaptive,Duration,0.145,Tactile,0.7,Tactile,0.845,0,0.606
Human,3,3,1,47,Tactile,TOJ,Adaptive,Duration,0.135,Tactile,0.835,Tactile,0.7,0,0.623
Human,3,3,1,48,Tactile,TOJ,Adaptive,Duration,0.125,Tactile,0.7,Tactile,0.825,0,0.595
Human,3,3,1,49,Tactile,TOJ,Adaptive,Duration,0.115,Tactile,0.7,Tactile,0.815,1,0.828
Human,3,3,1,50,Tactile,TOJ,Adaptive,Duration,0.145,Tactile,0.845,Tactile,0.7,1,0.596
Human,3,3,1,1,Auditory,Training,Adaptive,Duration,0.3,Auditory,1,Auditory,0.7,1,0.735
Human,3,3,1,2,Auditory,Training,Adaptive,Duration,0.29,Auditory,0.99,Auditory,0.7,1,0.53
Human,3,3,1,3,Auditory,Training,Adaptive,Duration,0.28,Auditory,0.7,Auditory,0.98,1,0.723
Human,3,3,1,4,Auditory,Training,Adaptive,Duration,0.27,Auditory,0.97,Auditory,0.7,1,0.891
Human,3,3,1,5,Auditory,Training,Adaptive,Duration,0.26,Auditory,0.7,Auditory,0.96,1,0.834
Human,3,3,1,1,Auditory,TOJ,Adaptive,Duration,0.3,Auditory,1,Auditory,0.7,1,0.589
Human,3,3,1,2,Auditory,TOJ,Adaptive,Duration,0.285,Auditory,0.985,Auditory,0.7,1,0.776
Human,3,3,1,3,Auditory,TOJ,Adaptive,Duration,0.27,Auditory,0.97,Auditory,0.7,1,0.622
Human,3,3,1,4,Auditory,TOJ,Adaptive,Duration,0.255,Auditory,0.7,Auditory,0.955,0,0.81
Human,3,3,1,5,Auditory,TOJ,Adaptive,Duration,0.24,Auditory,0.94,Auditory,0.7,0,0.851
Human,3,3,1,6,Auditory,TOJ,Adaptive,Duration,0.225,Auditory,0.7,Auditory,0.925,0,0.828
Human,3,3,1,7,Auditory,TOJ,Adaptive,Duration,0.21,Auditory,0.91,Auditory,0.7,0,0.661
Human,3,3,1,8,Auditory,TOJ,Adaptive,Duration,0.195,Auditory,0.7,Auditory,0.895,0,0.745
Human,3,3,1,9,Auditory,TOJ,Adaptive,Duration,0.18,Auditory,0.7,Auditory,0.88,1,0.682
Human,3,3,1,10,Auditory,TOJ,Adaptive,Duration,0.165,Auditory,0.865,Auditory,0.7,0,0.869
Human,3,3,1,11,Auditory,TOJ,Adaptive,Duration,0.15,Auditory,0.7,Auditory,0.85,0,0.898
Human,3,3,1,12,Auditory,TOJ,Adaptive,Duration,0.135,Auditory,0.7,Auditory,0.835,1,0.979
Human,3,3,1,13,Auditory,TOJ,Adaptive,Duration,0.12,Auditory,0.82,Auditory,0.7,0,0.87
Human,3,3,1,14,Auditory,TOJ,Adaptive,Duration,0.105,Auditory,0.805,Auditory,0.7,1,0.808
Human,3,3,1,15,Auditory,TOJ,Adaptive,Duration,0.09,Auditory,0.79,Auditory,0.7,1,0.794
Human,3,3,1,16,Auditory,TOJ,Adaptive,Duration,0.075,Auditory,0.775,Auditory,0.7,1,0.685
Human,3,3,1,17,Auditory,TOJ,Adaptive,Duration,0.12,Auditory,0.7,Auditory,0.82,1,0.658
Human,3,3,1,18,Auditory,TOJ,Adaptive,Duration,0.105,Auditory,0.805,Auditory,0.7,0,0.895
Human,3,3,1,19,Auditory,TOJ,Adaptive,Duration,0.09,Auditory,0.79,Auditory,0.7,1,0.999
Human,3,3,1,20,Auditory,TOJ,Adaptive,Duration,0.075,Auditory,0.775,Auditory,0.7,1,0.864
Human,3,3,1,21,Auditory,TOJ,Adaptive,Duration,0.12,Auditory,0.82,Auditory,0.7,0,0.717
Human,3,3,1,22,Auditory,TOJ,Adaptive,Duration,0.105,Auditory,0.7,Auditory,0.805,0,0.551
Human,3,3,1,23,Auditory,TOJ,Adaptive,Duration,0.09,Auditory,0.7,Auditory,0.79,1,0.909
Human,3,3,1,24,Auditory,TOJ,Adaptive,Duration,0.075,Auditory,0.775,Auditory,0.7,0,0.74
Human,3,3,1,25,Auditory,TOJ,Adaptive,Duration,0.06,Auditory,0.7,Auditory,0.76,0,0.654
Human,3,3,1,26,Auditory,TOJ,Adaptive,Duration,0.045,Auditory,0.7,Auditory,0.745,1,0.606
Human,3,3,1,27,Auditory,TOJ,Adaptive,Duration,0.09,Auditory,0.79,Auditory,0.7,1,0.629
Human,3,3,1,28,Auditory,TOJ,Adaptive,Duration,0.075,Auditory,0.7,Auditory,0.775,0,0.861
Human,3,3,1,29,Auditory,TOJ,Adaptive,Duration,0.06,Auditory,0.7,Auditory,0.76,1,0.64
Human,3,3,1,30,Auditory,TOJ,Adaptive,Duration,0.045,Auditory,0.745,Auditory,0.7,0,0.712
Human,3,3,1,31,Auditory,TOJ,Adaptive,Duration,0.035,Auditory,0.7,Auditory,0.735,0,0.947
Human,3,3,1,32,Auditory,TOJ,Adaptive,Duration,0.025,Auditory,0.7,Auditory,0.725,1,0.913
Human,3,3,1,33,Auditory,TOJ,Adaptive,Duration,0.055,Auditory,0.755,Auditory,0.7,1,0.668
Human,3,3,1,34,Auditory,TOJ,Adaptive,Duration,0.085,Auditory,0.785,Auditory,0.7,0,0.633
Human,3,3,1,35,Auditory,TOJ,Adaptive,Duration,0.075,Auditory,0.7,Auditory,0.775,0,0.828
Human,3,3,1,36,Auditory,TOJ,Adaptive,Duration,0.065,Auditory,0.765,Auditory,0.7,0,0.54
Human,3,3,1,37,Auditory,TOJ,Adaptive,Duration,0.055,Auditory,0.7,Auditory,0.755,0,0.742
Human,3,3,1,38,Auditory,TOJ,Adaptive,Duration,0.085,Auditory,0.7,Auditory,0.785,0,0.501
Human,3,3,1,39,Auditory,TOJ,Adaptive,Duration,0.115,Auditory,0.815,Auditory,0.7,1,0.635
Human,3,3,1,40,Auditory,TOJ,Adaptive,Duration,0.105,Auditory,0.7,Auditory,0.805,0,0.958
Human,3,3,1,41,Auditory,TOJ,Adaptive,Duration,0.135,Auditory,0.835,Auditory,0.7,1,0.942
Human,3,3,1,42,Auditory,TOJ,Adaptive,Duration,0.125,Auditory,0.825,Auditory,0.7,1,0.859
Human,3,3,1,43,Auditory,TOJ,Adaptive,Duration,0.115,Auditory,0.815,Auditory,0.7,1,0.727
Human,3,3,1,44,Auditory,TOJ,Adaptive,Duration,0.105,Auditory,0.805,Auditory,0.7,1,0.883
Human,3,3,1,45,Auditory,TOJ,Adaptive,Duration,0.095,Auditory,0.7,Auditory,0.795,0,0.848
Human,3,3,1,46,Auditory,TOJ,Adaptive,Duration,0.085,Auditory,0.7,Auditory,0.785,1,0.855
Human,3,3,1,47,Auditory,TOJ,Adaptive,Duration,0.075,Auditory,0.775,Auditory,0.7,0,0.539
Human,3,3,1,48,Auditory,TOJ,Adaptive,Duration,0.065,Auditory,0.7,Auditory,0.765,0,0.613
Human,3,3,1,49,Auditory,TOJ,Adaptive,Duration,0.055,Auditory,0.7,Auditory,0.755,1,0.825
Human,3,3,1,50,Auditory,TOJ,Adaptive,Duration,0.085,Auditory,0.7,Auditory,0.785,0,0.54
Human,4,2,1,1,Visual,Training,Adaptive,Duration,0.3,Visual,0.7,Visual,1,1,0.659
Human,4,2,1,2,Visual,Training,Adaptive,Duration,0.29,Visual,0.7,Visual,0.99,1,0.88
Human,4,2,1,3,Visual,Training,Adaptive,Duration,0.28,Visual,0.7,Visual,0.98,1,0.985
Human,4,2,1,4,Visual,Training,Adaptive,Duration,0.27,Visual,0.7,Visual,0.97,1,0.74
Human,4,2,1,5,Visual,Training,Adaptive,Duration,0.26,Visual,0.7,Visual,0.96,1,0.938
Human,4,2,1,1,Visual,TOJ,Adaptive,Duration,0.3,Visual,0.7,Visual,1,0,0.554
Human,4,2,1,2,Visual,TOJ,Adaptive,Duration,0.285,Visual,0.7,Visual,0.985,0,0.814
Human,4,2,1,3,Visual,TOJ,Adaptive,Duration,0.27,Visual,0.7,Visual,0.97,0,0.888
Human,4,2,1,4,Visual,TOJ,Adaptive,Duration,0.255,Visual,0.7,Visual,0.955,1,0.984
Human,4,2,1,5,Visual,TOJ,Adaptive,Duration,0.24,Visual,0.7,Visual,0.94,0,0.62
Human,4,2,1,6,Visual,TOJ,Adaptive,Duration,0.225,Visual,0.7,Visual,0.925,0,0.881
Human,4,2,1,7,Visual,TOJ,Adaptive,Duration,0.27,Visual,0.7,Visual,0.97,0,0.805
Human,4,2,1,8,Visual,TOJ,Adaptive,Duration,0.255,Visual,0.7,Visual,0.955,0,0.711
Human,4,2,1,9,Visual,TOJ,Adaptive,Duration,0.24,Visual,0.7,Visual,0.94,0,0.831
Human,4,2,1,10,Visual,TOJ,Adaptive,Duration,0.225,Visual,0.7,Visual,0.925,0,0.621
Human,4,2,1,11,Visual,TOJ,Adaptive,Duration,0.21,Visual,0.7,Visual,0.91,1,0.858
Human,4,2,1,12,Visual,TOJ,Adaptive,Duration,0.195,Visual,0.7,Visual,0.895,1,0.557
Human,4,2,1,13,Visual,TOJ,Adaptive,Duration,0.18,Visual,0.7,Visual,0.88,0,0.588
Human,4,2,1,14,Visual,TOJ,Adaptive,Duration,0.225,Visual,0.7,Visual,0.925,0,0.884
Human,4,2,1,15,Visual,TOJ,Adaptive,Duration,0.21,Visual,0.7,Visual,0.91,0,0.701
Human,4,2,1,16,Visual,TOJ,Adaptive,Duration,0.195,Visual,0.7,Visual,0.895,1,0.545
Human,4,2,1,17,Visual,TOJ,Adaptive,Duration,0.18,Visual,0.7,Visual,0.88,0,0.53
Human,4,2,1,18,Visual,TOJ,Adaptive,Duration,0.225,Visual,0.7,Visual,0.925,1,0.861
Human,4,2,1,19,Visual,TOJ,Adaptive,Duration,0.21,Visual,0.7,Visual,0.91,1,0.715
Human,4,2,1,20,Visual,TOJ,Adaptive,Duration,0.195,Visual,0.7,Visual,0.895,1,0.663
Human,4,2,1,21,Visual,TOJ,Adaptive,Duration,0.18,Visual,0.7,Visual,0.88,0,0.64
Human,4,2,1,22,Visual,TOJ,Adaptive,Duration,0.225,Visual,0.7,Visual,0.925,1,0.593
Human,4,2,1,23,Visual,TOJ,Adaptive,Duration,0.27,Visual,0.7,Visual,0.97,1,0.729
Human,4,2,1,24,Visual,TOJ,Adaptive,Duration,0.315,Visual,0.7,Visual,1.015,1,0.54
Human,4,2,1,25,Visual,TOJ,Adaptive,Duration,0.3,Visual,0.7,Visual,1,1,0.951
Human,4,2,1,26,Visual,TOJ,Adaptive,Duration,0.285,Visual,0.7,Visual,0.985,1,0.891
Human,4,2,1,27,Visual,TOJ,Adaptive,Duration,0.27,Visual,0.7,Visual,0.97,0,0.834
Human,4,2,1,28,Visual,TOJ,Adaptive,Duration,0.255,Visual,0.7,Visual,0.955,1,0.597
Human,4,2,1,29,Visual,TOJ,Adaptive,Duration,0.3,Visual,0.7,Visual,1,1,0.721
Human,4,2,1,30,Visual,TOJ,Adaptive,Duration,0.285,Visual,0.7,Visual,0.985,0,0.81
Human,4,2,1,31,Visual,TOJ,Adaptive,Duration,0.275,Visual,0.7,Visual,0.975,1,0.96
Human,4,2,1,32,Visual,TOJ,Adaptive,Duration,0.265,Visual,0.7,Visual,0.965,0,0.617
Human,4,2,1,33,Visual,TOJ,Adaptive,Duration,0.255,Visual,0.7,Visual,0.955,1,0.83
Human,4,2,1,34,Visual,TOJ,Adaptive,Duration,0.245,Visual,0.7,Visual,0.945,0,0.735
Human,4,2,1,35,Visual,TOJ,Adaptive,Duration,0.235,Visual,0.7,Visual,0.935,0,0.923
Human,4,2,1,36,Visual,TOJ,Adaptive,Duration,0.265,Visual,0.7,Visual,0.965,0,0.622
Human,4,2,1,37,Visual,TOJ,Adaptive,Duration,0.255,Visual,0.7,Visual,0.955,0,0.777
Human,4,2,1,38,Visual,TOJ,Adaptive,Duration,0.245,Visual,0.7,Visual,0.945,0,0.64
Human,4,2,1,39,Visual,TOJ,Adaptive,Duration,0.235,Visual,0.7,Visual,0.935,1,0.95
Human,4,2,1,40,Visual,TOJ,Adaptive,Duration,0.225,Visual,0.7,Visual,0.925,1,0.99
Human,4,2,1,41,Visual,TOJ,Adaptive,Duration,0.215,Visual,0.7,Visual,0.915,0,0.68
Human,4,2,1,42,Visual,TOJ,Adaptive,Duration,0.245,Visual,0.7,Visual,0.945,1,0.959
Human,4,2,1,43,Visual,TOJ,Adaptive,Duration,0.235,Visual,0.7,Visual,0.935,1,0.998
Human,4,2,1,44,Visual,TOJ,Adaptive,Duration,0.225,Visual,0.7,Visual,0.925,0,0.952
Human,4,2,1,45,Visual,TOJ,Adaptive,Duration,0.215,Visual,0.7,Visual,0.915,1,0.8
Human,4,2,1,46,Visual,TOJ,Adaptive,Duration,0.205,Visual,0.7,Visual,0.905,1,0.743
Human,4,2,1,47,Visual,TOJ,Adaptive,Duration,0.195,Visual,0.7,Visual,0.895,1,0.756
Human,4,2,1,48,Visual,TOJ,Adaptive,Duration,0.185,Visual,0.7,Visual,0.885,1,0.587
Human,4,2,1,49,Visual,TOJ,Adaptive,Duration,0.215,Visual,0.7,Visual,0.915,1,0.534
Human,4,2,1,50,Visual,TOJ,Adaptive,Duration,0.205,Visual,0.7,Visual,0.905,0,0.999
Human,4,2,1,1,Auditory,Training,Adaptive,Duration,0.3,Auditory,1,Auditory,0.7,1,0.816
Human,4,2,1,2,Auditory,Training,Adaptive,Duration,0.29,Auditory,0.7,Auditory,0.99,1,0.84
Human,4,2,1,3,Auditory,Training,Adaptive,Duration,0.28,Auditory,0.7,Auditory,0.98,1,0.672
Human,4,2,1,4,Auditory,Training,Adaptive,Duration,0.27,Auditory,0.7,Auditory,0.97,1,0.511
Human,4,2,1,5,Auditory,Training,Adaptive,Duration,0.26,Auditory,0.96,Auditory,0.7,1,0.695
Human,4,2,1,1,Auditory,TOJ,Adaptive,Duration,0.3,Auditory,0.7,Auditory,1,1,0.666
Human,4,2,1,2,Auditory,TOJ,Adaptive,Duration,0.285,Auditory,0.7,Auditory,0.985,1,0.611
Human,4,2,1,3,Auditory,TOJ,Adaptive,Duration,0.27,Auditory,0.97,Auditory,0.7,0,0.828
Human,4,2,1,4,Auditory,TOJ,Adaptive,Duration,0.255,Auditory,0.7,Auditory,0.955,0,0.518
Human,4,2,1,5,Auditory,TOJ,Adaptive,Duration,0.24,Auditory,0.94,Auditory,0.7,0,0.918
Human,4,2,1,6,Auditory,TOJ,Adaptive,Duration,0.225,Auditory,0.925,Auditory,0.7,1,0.749
Human,4,2,1,7,Auditory,TOJ,Adaptive,Duration,0.21,Auditory,0.7,Auditory,0.91,0,0.775
Human,4,2,1,8,Auditory,TOJ,Adaptive,Duration,0.195,Auditory,0.895,Auditory,0.7,0,0.687
Human,4,2,1,9,Auditory,TOJ,Adaptive,Duration,0.18,Auditory,0.88,Auditory,0.7,1,0.893
Human,4,2,1,10,Auditory,TOJ,Adaptive,Duration,0.165,Auditory,0.7,Auditory,0.865,0,0.685
Human,4,2,1,11,Auditory,TOJ,Adaptive,Duration,0.15,Auditory,0.7,Auditory,0.85,1,0.503
Human,4,2,1,12,Auditory,TOJ,Adaptive,Duration,0.135,Auditory,0.835,Auditory,0.7,0,0.916
Human,4,2,1,13,Auditory,TOJ,Adaptive,Duration,0.12,Auditory,0.82,Auditory,0.7,1,0.585
Human,4,2,1,14,Auditory,TOJ,Adaptive,Duration,0.105,Auditory,0.805,Auditory,0.7,1,0.942
Human,4,2,1,15,Auditory,TOJ,Adaptive,Duration,0.09,Auditory,0.79,Auditory,0.7,1,0.985
Human,4,2,1,16,Auditory,TOJ,Adaptive,Duration,0.075,Auditory,0.7,Auditory,0.775,0,0.83
Human,4,2,1,17,Auditory,TOJ,Adaptive,Duration,0.12,Auditory,0.7,Auditory,0.82,0,0.915
Human,4,2,1,18,Auditory,TOJ,Adaptive,Duration,0.105,Auditory,0.805,Auditory,0.7,0,0.708
Human,4,2,1,19,Auditory,TOJ,Adaptive,Duration,0.09,Auditory,0.79,Auditory,0.7,1,0.826
Human,4,2,1,20,Auditory,TOJ,Adaptive,Duration,0.075,Auditory,0.775,Auditory,0.7,1,0.589
Human,4,2,1,21,Auditory,TOJ,Adaptive,Duration,0.06,Auditory,0.76,Auditory,0.7,1,0.987
Human,4,2,1,22,Auditory,TOJ,Adaptive,Duration,0.045,Auditory,0.7,Auditory,0.745,0,0.822
Human,4,2,1,23,Auditory,TOJ,Adaptive,Duration,0.09,Auditory,0.7,Auditory,0.79,0,0.739
Human,4,2,1,24,Auditory,TOJ,Adaptive,Duration,0.075,Auditory,0.7,Auditory,0.775,1,0.598
Human,4,2,1,25,Auditory,TOJ,Adaptive,Duration,0.12,Auditory,0.82,Auditory,0.7,1,0.59
Human,4,2,1,26,Auditory,TOJ,Adaptive,Duration,0.105,Auditory,0.7,Auditory,0.805,0,0.883
Human,4,2,1,27,Auditory,TOJ,Adaptive,Duration,0.09,Auditory,0.79,Auditory,0.7,0,0.748
Human,4,2,1,28,Auditory,TOJ,Adaptive,Duration,0.075,Auditory,0.775,Auditory,0.7,1,0.622
Human,4,2,1,29,Auditory,TOJ,Adaptive,Duration,0.06,Auditory,0.76,Auditory,0.7,1,0.707
Human,4,2,1,30,Auditory,TOJ,Adaptive,Duration,0.045,Auditory,0.745,Auditory,0.7,1,0.71
Human,4,2,1,31,Auditory,TOJ,Adaptive,Duration,0.035,Auditory,0.735,Auditory,0.7,1,0.935
Human,4,2,1,32,Auditory,TOJ,Adaptive,Duration,0.025,Auditory,0.725,Auditory,0.7,1,0.518
Human,4,2,1,33,Auditory,TOJ,Adaptive,Duration,0.015,Auditory,0.715,Auditory,0.7,1,0.999
Human,4,2,1,34,Auditory,TOJ,Adaptive,Duration,0.005,Auditory,0.705,Auditory,0.7,1,0.521
Human,4,2,1,35,Auditory,TOJ,Adaptive,Duration,0.005,Auditory,0.705,Auditory,0.7,1,0.553
Human,4,2,1,36,Auditory,TOJ,Adaptive,Duration,0.005,Auditory,0.7,Auditory,0.705,0,0.603
Human,4,2,1,37,Auditory,TOJ,Adaptive,Duration,0.035,Auditory,0.735,Auditory,0.7,1,0.769
Human,4,2,1,38,Auditory,TOJ,Adaptive,Duration,0.025,Auditory,0.725,Auditory,0.7,1,0.737
Human,4,2,1,39,Auditory,TOJ,Adaptive,Duration,0.015,Auditory,0.7,Auditory,0.715,0,0.788
Human,4,2,1,40,Auditory,TOJ,Adaptive,Duration,0.045,Auditory,0.7,Auditory,0.745,0,0.788
Human,4,2,1,41,Auditory,TOJ,Adaptive,Duration,0.075,Auditory,0.775,Auditory,0.7,1,0.769
Human,4,2,1,42,Auditory,TOJ,Adaptive,Duration,0.065,Auditory,0.7,Auditory,0.765,0,0.597
Human,4,2,1,43,Auditory,TOJ,Adaptive,Duration,0.055,Auditory,0.7,Auditory,0.755,1,0.691
Human,4,2,1,44,Auditory,TOJ,Adaptive,Duration,0.085,Auditory,0.785,Auditory,0.7,1,0.941
Human,4,2,1,45,Auditory,TOJ,Adaptive,Duration,0.075,Auditory,0.7,Auditory,0.775,0,0.509
Human,4,2,1,46,Auditory,TOJ,Adaptive,Duration,0.105,Auditory,0.7,Auditory,0.805,0,0.917
Human,4,2,1,47,Auditory,TOJ,Adaptive,Duration,0.135,Auditory,0.835,Auditory,0.7,1,0.857
Human,4,2,1,48,Auditory,TOJ,Adaptive,Duration,0.125,Auditory,0.825,Auditory,0.7,1,0.917
Human,4,2,1,49,Auditory,TOJ,Adaptive,Duration,0.115,Auditory,0.815,Auditory,0.7,1,0.794
Human,4,2,1,50,Auditory,TOJ,Adaptive,Duration,0.105,Auditory,0.805,Auditory,0.7,1,0.745
Human,4,2,1,1,Tactile,Training,Adaptive,Duration,0.3,Tactile,1,Tactile,0.7,1,0.992
Human,4,2,1,2,Tactile,Training,Adaptive,Duration,0.29,Tactile,0.7,Tactile,0.99,1,0.823
Human,4,2,1,3,Tactile,Training,Adaptive,Duration,0.28,Tactile,0.7,Tactile,0.98,1,0.971
Human,4,2,1,4,Tactile,Training,Adaptive,Duration,0.27,Tactile,0.97,Tactile,0.7,1,0.689
Human,4,2,1,5,Tactile,Training,Adaptive,Duration,0.26,Tactile,0.96,Tactile,0.7,0,0.66
Human,4,2,1,1,Tactile,TOJ,Adaptive,Duration,0.3,Tactile,1,Tactile,0.7,1,0.831
Human,4,2,1,2,Tactile,TOJ,Adaptive,Duration,0.285,Tactile,0.985,Tactile,0.7,1,0.65
Human,4,2,1,3,Tactile,TOJ,Adaptive,Duration,0.27,Tactile,0.7,Tactile,0.97,0,0.547
Human,4,2,1,4,Tactile,TOJ,Adaptive,Duration,0.255,Tactile,0.955,Tactile,0.7,0,0.803
Human,4,2,1,5,Tactile,TOJ,Adaptive,Duration,0.24,Tactile,0.7,Tactile,0.94,0,0.74
Human,4,2,1,6,Tactile,TOJ,Adaptive,Duration,0.225,Tactile,0.925,Tactile,0.7,0,0.717
Human,4,2,1,7,Tactile,TOJ,Adaptive,Duration,0.21,Tactile,0.7,Tactile,0.91,0,0.864
Human,4,2,1,8,Tactile,TOJ,Adaptive,Duration,0.195,Tactile,0.895,Tactile,0.7,0,0.645
Human,4,2,1,9,Tactile,TOJ,Adaptive,Duration,0.18,Tactile,0.88,Tactile,0.7,1,0.546
Human,4,2,1,10,Tactile,TOJ,Adaptive,Duration,0.165,Tactile,0.7,Tactile,0.865,0,0.582
Human,4,2,1,11,Tactile,TOJ,Adaptive,Duration,0.15,Tactile,0.85,Tactile,0.7,0,0.584
Human,4,2,1,12,Tactile,TOJ,Adaptive,Duration,0.135,Tactile,0.835,Tactile,0.7,1,0.863
Human,4,2,1,13,Tactile,TOJ,Adaptive,Duration,0.12,Tactile,0.7,Tactile,0.82,0,0.974
Human,4,2,1,14,Tactile,TOJ,Adaptive,Duration,0.105,Tactile,0.805,Tactile,0.7,0,0.831
Human,4,2,1,15,Tactile,TOJ,Adaptive,Duration,0.09,Tactile,0.7,Tactile,0.79,0,0.955
Human,4,2,1,16,Tactile,TOJ,Adaptive,Duration,0.135,Tactile,0.7,Tactile,0.835,0,0.537
Human,4,2,1,17,Tactile,TOJ,Adaptive,Duration,0.12,Tactile,0.82,Tactile,0.7,0,0.501
Human,4,2,1,18,Tactile,TOJ,Adaptive,Duration,0.105,Tactile,0.805,Tactile,0.7,1,0.594
Human,4,2,1,19,Tactile,TOJ,Adaptive,Duration,0.15,Tactile,0.85,Tactile,0.7,0,0.892
Human,4,2,1,20,Tactile,TOJ,Adaptive,Duration,0.135,Tactile,0.7,Tactile,0.835,0,0.986
Human,4,2,1,21,Tactile,TOJ,Adaptive,Duration,0.12,Tactile,0.82,Tactile,0.7,0,0.763
Human,4,2,1,22,Tactile,TOJ,Adaptive,Duration,0.105,Tactile,0.7,Tactile,0.805,0,0.778
Human,4,2,1,23,Tactile,TOJ,Adaptive,Duration,0.09,Tactile,0.7,Tactile,0.79,1,0.841
Human,4,2,1,24,Tactile,TOJ,Adaptive,Duration,0.075,Tactile,0.775,Tactile,0.7,0,0.934
Human,4,2,1,25,Tactile,TOJ,Adaptive,Duration,0.06,Tactile,0.7,Tactile,0.76,0,0.518
Human,4,2,1,26,Tactile,TOJ,Adaptive,Duration,0.105,Tactile,0.805,Tactile,0.7,1,0.642
Human,4,2,1,27,Tactile,TOJ,Adaptive,Duration,0.15,Tactile,0.85,Tactile,0.7,0,0.781
Human,4,2,1,28,Tactile,TOJ,Adaptive,Duration,0.135,Tactile,0.835,Tactile,0.7,1,0.878
Human,4,2,1,29,Tactile,TOJ,Adaptive,Duration,0.12,Tactile,0.82,Tactile,0.7,1,0.951
Human,4,2,1,30,Tactile,TOJ,Adaptive,Duration,0.105,Tactile,0.805,Tactile,0.7,1,0.522
Human,4,2,1,31,Tactile,TOJ,Adaptive,Duration,0.095,Tactile,0.7,Tactile,0.795,0,0.948
Human,4,2,1,32,Tactile,TOJ,Adaptive,Duration,0.125,Tactile,0.825,Tactile,0.7,1,0.566
Human,4,2,1,33,Tactile,TOJ,Adaptive,Duration,0.115,Tactile,0.7,Tactile,0.815,0,0.89
Human,4,2,1,34,Tactile,TOJ,Adaptive,Duration,0.105,Tactile,0.805,Tactile,0.7,0,0.794
Human,4,2,1,35,Tactile,TOJ,Adaptive,Duration,0.095,Tactile,0.7,Tactile,0.795,0,0.544
Human,4,2,1,36,Tactile,TOJ,Adaptive,Duration,0.125,Tactile,0.7,Tactile,0.825,0,0.801
Human,4,2,1,37,Tactile,TOJ,Adaptive,Duration,0.115,Tactile,0.815,Tactile,0.7,0,0.637
Human,4,2,1,38,Tactile,TOJ,Adaptive,Duration,0.105,Tactile,0.7,Tactile,0.805,0,0.615
Human,4,2,1,39,Tactile,TOJ,Adaptive,Duration,0.095,Tactile,0.795,Tactile,0.7,0,0.957
Human,4,2,1,40,Tactile,TOJ,Adaptive,Duration,0.085,Tactile,0.7,Tactile,0.785,0,0.828
Human,4,2,1,41,Tactile,TOJ,Adaptive,Duration,0.075,Tactile,0.775,Tactile,0.7,0,0.823
Human,4,2,1,42,Tactile,TOJ,Adaptive,Duration,0.065,Tactile,0.7,Tactile,0.765,0,0.654
Human,4,2,1,43,Tactile,TOJ,Adaptive,Duration,0.095,Tactile,0.7,Tactile,0.795,0,0.868
Human,4,2,1,44,Tactile,TOJ,Adaptive,Duration,0.085,Tactile,0.7,Tactile,0.785,1,0.744
Human,4,2,1,45,Tactile,TOJ,Adaptive,Duration,0.115,Tactile,0.815,Tactile,0.7,1,0.557
Human,4,2,1,46,Tactile,TOJ,Adaptive,Duration,0.105,Tactile,0.7,Tactile,0.805,0,0.552
Human,4,2,1,47,Tactile,TOJ,Adaptive,Duration,0.095,Tactile,0.7,Tactile,0.795,1,0.783
Human,4,2,1,48,Tactile,TOJ,Adaptive,Duration,0.085,Tactile,0.7,Tactile,0.785,1,0.746
Human,4,2,1,49,Tactile,TOJ,Adaptive,Duration,0.075,Tactile,0.775,Tactile,0.7,0,0.735
Human,4,2,1,50,Tactile,TOJ,Adaptive,Duration,0.065,Tactile,0.765,Tactile,0.7,1,0.792
Human,5,1,1,1,Tactile,Training,Adaptive,Duration,0.3,Tactile,1,Tactile,0.7,1,0.659
Human,5,1,1,2,Tactile,Training,Adaptive,Duration,0.29,Tactile,0.7,Tactile,0.99,1,0.547
Human,5,1,1,3,Tactile,Training,Adaptive,Duration,0.28,Tactile,0.98,Tactile,0.7,1,0.859
Human,5,1,1,4,Tactile,Training,Adaptive,Duration,0.27,Tactile,0.7,Tactile,0.97,1,0.649
Human,5,1,1,5,Tactile,Training,Adaptive,Duration,0.26,Tactile,0.7,Tactile,0.96,1,0.905
Human,5,1,1,1,Tactile,TOJ,Adaptive,Duration,0.3,Tactile,1,Tactile,0.7,0,0.743
Human,5,1,1,2,Tactile,TOJ,Adaptive,Duration,0.285,Tactile,0.985,Tactile,0.7,1,0.832
Human,5,1,1,3,Tactile,TOJ,Adaptive,Duration,0.27,Tactile,0.97,Tactile,0.7,1,0.707
Human,5,1,1,4,Tactile,TOJ,Adaptive,Duration,0.255,Tactile,0.955,Tactile,0.7,1,0.579
Human,5,1,1,5,Tactile,TOJ,Adaptive,Duration,0.24,Tactile,0.7,Tactile,0.94,0,0.852
Human,5,1,1,6,Tactile,TOJ,Adaptive,Duration,0.225,Tactile,0.7,Tactile,0.925,1,0.726
Human,5,1,1,7,Tactile,TOJ,Adaptive,Duration,0.21,Tactile,0.7,Tactile,0.91,1,0.944
Human,5,1,1,8,Tactile,TOJ,Adaptive,Duration,0.195,Tactile,0.7,Tactile,0.895,1,0.621
Human,5,1,1,9,Tactile,TOJ,Adaptive,Duration,0.18,Tactile,0.88,Tactile,0.7,0,0.694
Human,5,1,1,10,Tactile,TOJ,Adaptive,Duration,0.225,Tactile,0.7,Tactile,0.925,1,0.575
Human,5,1,1,11,Tactile,TOJ,Adaptive,Duration,0.21,Tactile,0.91,Tactile,0.7,0,0.993
Human,5,1,1,12,Tactile,TOJ,Adaptive,Duration,0.195,Tactile,0.7,Tactile,0.895,0,0.821
Human,5,1,1,13,Tactile,TOJ,Adaptive,Duration,0.24,Tactile,0.7,Tactile,0.94,0,0.644
Human,5,1,1,14,Tactile,TOJ,Adaptive,Duration,0.225,Tactile,0.925,Tactile,0.7,0,0.559
Human,5,1,1,15,Tactile,TOJ,Adaptive,Duration,0.21,Tactile,0.91,Tactile,0.7,1,0.713
Human,5,1,1,16,Tactile,TOJ,Adaptive,Duration,0.195,Tactile,0.7,Tactile,0.895,0,0.983
Human,5,1,1,17,Tactile,TOJ,Adaptive,Duration,0.18,Tactile,0.88,Tactile,0.7,0,0.58
Human,5,1,1,18,Tactile,TOJ,Adaptive,Duration,0.165,Tactile,0.7,Tactile,0.865,0,0.971
Human,5,1,1,19,Tactile,TOJ,Adaptive,Duration,0.15,Tactile,0.7,Tactile,0.85,1,0.613
Human,5,1,1,20,Tactile,TOJ,Adaptive,Duration,0.195,Tactile,0.895,Tactile,0.7,1,0.516
Human,5,1,1,21,Tactile,TOJ,Adaptive,Duration,0.24,Tactile,0.94,Tactile,0.7,0,0.528
Human,5,1,1,22,Tactile,TOJ,Adaptive,Duration,0.225,Tactile,0.7,Tactile,0.925,0,0.505
Human,5,1,1,23,Tactile,TOJ,Adaptive,Duration,0.27,Tactile,0.97,Tactile,0.7,1,0.698
Human,5,1,1,24,Tactile,TOJ,Adaptive,Duration,0.255,Tactile,0.955,Tactile,0.7,1,0.803
Human,5,1,1,25,Tactile,TOJ,Adaptive,Duration,0.24,Tactile,0.7,Tactile,0.94,0,0.758
Human,5,1,1,26,Tactile,TOJ,Adaptive,Duration,0.225,Tactile,0.7,Tactile,0.925,1,0.913
Human,5,1,1,27,Tactile,TOJ,Adaptive,Duration,0.27,Tactile,0.97,Tactile,0.7,1,0.754
Human,5,1,1,28,Tactile,TOJ,Adaptive,Duration,0.255,Tactile,0.955,Tactile,0.7,1,0.846
Human,5,1,1,29,Tactile,TOJ,Adaptive,Duration,0.24,Tactile,0.7,Tactile,0.94,0,0.764
Human,5,1,1,30,Tactile,TOJ,Adaptive,Duration,0.225,Tactile,0.7,Tactile,0.925,1,0.785
Human,5,1,1,31,Tactile,TOJ,Adaptive,Duration,0.215,Tactile,0.915,Tactile,0.7,0,0.718
Human,5,1,1,32,Tactile,TOJ,Adaptive,Duration,0.205,Tactile,0.7,Tactile,0.905,0,0.84
Human,5,1,1,33,Tactile,TOJ,Adaptive,Duration,0.195,Tactile,0.7,Tactile,0.895,1,0.627
Human,5,1,1,34,Tactile,TOJ,Adaptive,Duration,0.185,Tactile,0.885,Tactile,0.7,0,0.898
Human,5,1,1,35,Tactile,TOJ,Adaptive,Duration,0.175,Tactile,0.7,Tactile,0.875,0,0.93
Human,5,1,1,36,Tactile,TOJ,Adaptive,Duration,0.165,Tactile,0.7,Tactile,0.865,1,0.789
Human,5,1,1,37,Tactile,TOJ,Adaptive,Duration,0.155,Tactile,0.855,Tactile,0.7,0,0.554
Human,5,1,1,38,Tactile,TOJ,Adaptive,Duration,0.185,Tactile,0.7,Tactile,0.885,1,0.811
Human,5,1,1,39,Tactile,TOJ,Adaptive,Duration,0.175,Tactile,0.7,Tactile,0.875,1,0.58
Human,5,1,1,40,Tactile,TOJ,Adaptive,Duration,0.165,Tactile,0.865,Tactile,0.7,0,0.529
Human,5,1,1,41,Tactile,TOJ,Adaptive,Duration,0.155,Tactile,0.855,Tactile,0.7,1,0.614
Human,5,1,1,42,Tactile,TOJ,Adaptive,Duration,0.145,Tactile,0.7,Tactile,0.845,0,0.673
Human,5,1,1,43,Tactile,TOJ,Adaptive,Duration,0.135,Tactile,0.835,Tactile,0.7,0,0.658
Human,5,1,1,44,Tactile,TOJ,Adaptive,Duration,0.125,Tactile,0.7,Tactile,0.825,0,0.676
Human,5,1,1,45,Tactile,TOJ,Adaptive,Duration,0.115,Tactile,0.815,Tactile,0.7,0,0.61
Human,5,1,1,46,Tactile,TOJ,Adaptive,Duration,0.105,Tactile,0.7,Tactile,0.805,0,0.606
Human,5,1,1,47,Tactile,TOJ,Adaptive,Duration,0.095,Tactile,0.7,Tactile,0.795,1,0.635
Human,5,1,1,48,Tactile,TOJ,Adaptive,Duration,0.085,Tactile,0.7,Tactile,0.785,1,0.674
Human,5,1,1,49,Tactile,TOJ,Adaptive,Duration,0.075,Tactile,0.775,Tactile,0.7,0,0.659
Human,5,1,1,50,Tactile,TOJ,Adaptive,Duration,0.065,Tactile,0.765,Tactile,0.7,1,0.929
Human,5,1,1,1,Auditory,Training,Adaptive,Duration,0.3,Auditory,0.7,Auditory,1,1,0.539
Human,5,1,1,2,Auditory,Training,Adaptive,Duration,0.29,Auditory,0.7,Auditory,0.99,1,0.593
Human,5,1,1,3,Auditory,Training,Adaptive,Duration,0.28,Auditory,0.98,Auditory,0.7,1,0.899
Human,5,1,1,4,Auditory,Training,Adaptive,Duration,0.27,Auditory,0.97,Auditory,0.7,1,0.819
Human,5,1,1,5,Auditory,Training,Adaptive,Duration,0.26,Auditory,0.96,Auditory,0.7,1,0.563
Human,5,1,1,1,Auditory,TOJ,Adaptive,Duration,0.3,Auditory,0.7,Auditory,1,0,0.803
Human,5,1,1,2,Auditory,TOJ,Adaptive,Duration,0.285,Auditory,0.985,Auditory,0.7,0,0.706
Human,5,1,1,3,Auditory,TOJ,Adaptive,Duration,0.27,Auditory,0.7,Auditory,0.97,0,0.765
Human,5,1,1,4,Auditory,TOJ,Adaptive,Duration,0.255,Auditory,0.955,Auditory,0.7,0,0.59
Human,5,1,1,5,Auditory,TOJ,Adaptive,Duration,0.24,Auditory,0.94,Auditory,0.7,1,0.787
Human,5,1,1,6,Auditory,TOJ,Adaptive,Duration,0.225,Auditory,0.925,Auditory,0.7,1,0.94
Human,5,1,1,7,Auditory,TOJ,Adaptive,Duration,0.21,Auditory,0.91,Auditory,0.7,1,0.665
Human,5,1,1,8,Auditory,TOJ,Adaptive,Duration,0.195,Auditory,0.7,Auditory,0.895,0,0.75
Human,5,1,1,9,Auditory,TOJ,Adaptive,Duration,0.18,Auditory,0.88,Auditory,0.7,0,0.598
Human,5,1,1,10,Auditory,TOJ,Adaptive,Duration,0.165,Auditory,0.7,Auditory,0.865,0,0.985
Human,5,1,1,11,Auditory,TOJ,Adaptive,Duration,0.21,Auditory,0.91,Auditory,0.7,1,0.884
Human,5,1,1,12,Auditory,TOJ,Adaptive,Duration,0.195,Auditory,0.895,Auditory,0.7,1,0.765
Human,5,1,1,13,Auditory,TOJ,Adaptive,Duration,0.18,Auditory,0.7,Auditory,0.88,0,0.9
Human,5,1,1,14,Auditory,TOJ,Adaptive,Duration,0.165,Auditory,0.865,Auditory,0.7,0,0.542
Human,5,1,1,15,Auditory,TOJ,Adaptive,Duration,0.15,Auditory,0.7,Auditory,0.85,0,0.513
Human,5,1,1,16,Auditory,TOJ,Adaptive,Duration,0.135,Auditory,0.7,Auditory,0.835,1,0.633
Human,5,1,1,17,Auditory,TOJ,Adaptive,Duration,0.12,Auditory,0.7,Auditory,0.82,1,0.859
Human,5,1,1,18,Auditory,TOJ,Adaptive,Duration,0.105,Auditory,0.805,Auditory,0.7,0,0.807
Human,5,1,1,19,Auditory,TOJ,Adaptive,Duration,0.09,Auditory,0.7,Auditory,0.79,0,0.674
Human,5,1,1,20,Auditory,TOJ,Adaptive,Duration,0.075,Auditory,0.775,Auditory,0.7,0,0.751
Human,5,1,1,21,Auditory,TOJ,Adaptive,Duration,0.06,Auditory,0.7,Auditory,0.76,0,0.946
Human,5,1,1,22,Auditory,TOJ,Adaptive,Duration,0.045,Auditory,0.745,Auditory,0.7,0,0.677
Human,5,1,1,23,Auditory,TOJ,Adaptive,Duration,0.03,Auditory,0.73,Auditory,0.7,1,0.625
Human,5,1,1,24,Auditory,TOJ,Adaptive,Duration,0.015,Auditory,0.7,Auditory,0.715,0,0.99
Human,5,1,1,25,Auditory,TOJ,Adaptive,Duration,0.06,Auditory,0.7,Auditory,0.76,0,0.839
Human,5,1,1,26,Auditory,TOJ,Adaptive,Duration,0.105,Auditory,0.805,Auditory,0.7,1,0.869
Human,5,1,1,27,Auditory,TOJ,Adaptive,Duration,0.09,Auditory,0.79,Auditory,0.7,1,0.884
Human,5,1,1,28,Auditory,TOJ,Adaptive,Duration,0.075,Auditory,0.775,Auditory,0.7,1,0.899
Human,5,1,1,29,Auditory,TOJ,Adaptive,Duration,0.06,Auditory,0.76,Auditory,0.7,1,0.648
Human,5,1,1,30,Auditory,TOJ,Adaptive,Duration,0.045,Auditory,0.7,Auditory,0.745,0,0.638
Human,5,1,1,31,Auditory,TOJ,Adaptive,Duration,0.075,Auditory,0.7,Auditory,0.775,0,0.669
Human,5,1,1,32,Auditory,TOJ,Adaptive,Duration,0.065,Auditory,0.765,Auditory,0.7,0,0.772
Human,5,1,1,33,Auditory,TOJ,Adaptive,Duration,0.055,Auditory,0.755,Auditory,0.7,1,0.772
Human,5,1,1,34,Auditory,TOJ,Adaptive,Duration,0.045,Auditory,0.7,Auditory,0.745,0,0.599
Human,5,1,1,35,Auditory,TOJ,Adaptive,Duration,0.035,Auditory,0.7,Auditory,0.735,1,0.589
Human,5,1,1,36,Auditory,TOJ,Adaptive,Duration,0.025,Auditory,0.725,Auditory,0.7,0,0.836
Human,5,1,1,37,Auditory,TOJ,Adaptive,Duration,0.015,Auditory,0.715,Auditory,0.7,1,0.879
Human,5,1,1,38,Auditory,TOJ,Adaptive,Duration,0.005,Auditory,0.705,Auditory,0.7,1,0.733
Human,5,1,1,39,Auditory,TOJ,Adaptive,Duration,0.035,Auditory,0.735,Auditory,0.7,0,0.95
Human,5,1,1,40,Auditory,TOJ,Adaptive,Duration,0.065,Auditory,0.765,Auditory,0.7,0,0.553
Human,5,1,1,41,Auditory,TOJ,Adaptive,Duration,0.055,Auditory,0.755,Auditory,0.7,1,0.931
Human,5,1,1,42,Auditory,TOJ,Adaptive,Duration,0.045,Auditory,0.7,Auditory,0.745,0,0.759
Human,5,1,1,43,Auditory,TOJ,Adaptive,Duration,0.075,Auditory,0.7,Auditory,0.775,0,0.644
Human,5,1,1,44,Auditory,TOJ,Adaptive,Duration,0.065,Auditory,0.7,Auditory,0.765,1,0.712
Human,5,1,1,45,Auditory,TOJ,Adaptive,Duration,0.055,Auditory,0.755,Auditory,0.7,0,0.583
Human,5,1,1,46,Auditory,TOJ,Adaptive,Duration,0.045,Auditory,0.745,Auditory,0.7,1,0.891
Human,5,1,1,47,Auditory,TOJ,Adaptive,Duration,0.035,Auditory,0.7,Auditory,0.735,0,0.561
Human,5,1,1,48,Auditory,TOJ,Adaptive,Duration,0.065,Auditory,0.7,Auditory,0.765,0,0.629
Human,5,1,1,49,Auditory,TOJ,Adaptive,Duration,0.095,Auditory,0.7,Auditory,0.795,0,0.606
Human,5,1,1,50,Auditory,TOJ,Adaptive,Duration,0.085,Auditory,0.7,Auditory,0.785,1,0.83
Human,5,1,1,1,Visual,Training,Adaptive,Duration,0.3,Visual,0.7,Visual,1,0,0.814
Human,5,1,1,2,Visual,Training,Adaptive,Duration,0.33,Visual,0.7,Visual,1.03,1,0.928
Human,5,1,1,3,Visual,Training,Adaptive,Duration,0.32,Visual,0.7,Visual,1.02,0,0.617
Human,5,1,1,4,Visual,Training,Adaptive,Duration,0.35,Visual,0.7,Visual,1.05,1,0.608
Human,5,1,1,5,Visual,Training,Adaptive,Duration,0.34,Visual,0.7,Visual,1.04,1,0.948
Human,5,1,1,1,Visual,TOJ,Adaptive,Duration,0.3,Visual,0.7,Visual,1,0,0.802
Human,5,1,1,2,Visual,TOJ,Adaptive,Duration,0.285,Visual,0.7,Visual,0.985,1,0.624
Human,5,1,1,3,Visual,TOJ,Adaptive,Duration,0.27,Visual,0.7,Visual,0.97,0,0.793
Human,5,1,1,4,Visual,TOJ,Adaptive,Duration,0.255,Visual,0.7,Visual,0.955,1,0.685
Human,5,1,1,5,Visual,TOJ,Adaptive,Duration,0.3,Visual,0.7,Visual,1,1,0.824
Human,5,1,1,6,Visual,TOJ,Adaptive,Duration,0.285,Visual,0.7,Visual,0.985,1,0.622
Human,5,1,1,7,Visual,TOJ,Adaptive,Duration,0.27,Visual,0.7,Visual,0.97,1,0.711
Human,5,1,1,8,Visual,TOJ,Adaptive,Duration,0.315,Visual,0.7,Visual,1.015,1,0.719
Human,5,1,1,9,Visual,TOJ,Adaptive,Duration,0.3,Visual,0.7,Visual,1,1,0.587
Human,5,1,1,10,Visual,TOJ,Adaptive,Duration,0.285,Visual,0.7,Visual,0.985,1,0.907
Human,5,1,1,11,Visual,TOJ,Adaptive,Duration,0.27,Visual,0.7,Visual,0.97,1,0.937
Human,5,1,1,12,Visual,TOJ,Adaptive,Duration,0.255,Visual,0.7,Visual,0.955,1,0.753
Human,5,1,1,13,Visual,TOJ,Adaptive,Duration,0.24,Visual,0.7,Visual,0.94,0,0.713
Human,5,1,1,14,Visual,TOJ,Adaptive,Duration,0.225,Visual,0.7,Visual,0.925,1,0.532
Human,5,1,1,15,Visual,TOJ,Adaptive,Duration,0.21,Visual,0.7,Visual,0.91,0,0.804
Human,5,1,1,16,Visual,TOJ,Adaptive,Duration,0.195,Visual,0.7,Visual,0.895,1,0.852
Human,5,1,1,17,Visual,TOJ,Adaptive,Duration,0.24,Visual,0.7,Visual,0.94,1,0.812
Human,5,1,1,18,Visual,TOJ,Adaptive,Duration,0.225,Visual,0.7,Visual,0.925,0,0.873
Human,5,1,1,19,Visual,TOJ,Adaptive,Duration,0.27,Visual,0.7,Visual,0.97,1,0.647
Human,5,1,1,20,Visual,TOJ,Adaptive,Duration,0.255,Visual,0.7,Visual,0.955,0,0.987
Human,5,1,1,21,Visual,TOJ,Adaptive,Duration,0.24,Visual,0.7,Visual,0.94,1,0.838
Human,5,1,1,22,Visual,TOJ,Adaptive,Duration,0.225,Visual,0.7,Visual,0.925,0,0.676
Human,5,1,1,23,Visual,TOJ,Adaptive,Duration,0.21,Visual,0.7,Visual,0.91,0,0.642
Human,5,1,1,24,Visual,TOJ,Adaptive,Duration,0.195,Visual,0.7,Visual,0.895,0,0.897
Human,5,1,1,25,Visual,TOJ,Adaptive,Duration,0.24,Visual,0.7,Visual,0.94,1,0.888
Human,5,1,1,26,Visual,TOJ,Adaptive,Duration,0.285,Visual,0.7,Visual,0.985,1,0.52
Human,5,1,1,27,Visual,TOJ,Adaptive,Duration,0.27,Visual,0.7,Visual,0.97,1,0.745
Human,5,1,1,28,Visual,TOJ,Adaptive,Duration,0.315,Visual,0.7,Visual,1.015,0,0.647
Human,5,1,1,29,Visual,TOJ,Adaptive,Duration,0.3,Visual,0.7,Visual,1,0,0.715
Human,5,1,1,30,Visual,TOJ,Adaptive,Duration,0.345,Visual,0.7,Visual,1.045,1,0.531
Human,5,1,1,31,Visual,TOJ,Adaptive,Duration,0.335,Visual,0.7,Visual,1.035,1,0.547
Human,5,1,1,32,Visual,TOJ,Adaptive,Duration,0.325,Visual,0.7,Visual,1.025,1,0.761
Human,5,1,1,33,Visual,TOJ,Adaptive,Duration,0.315,Visual,0.7,Visual,1.015,1,0.588
Human,5,1,1,34,Visual,TOJ,Adaptive,Duration,0.305,Visual,0.7,Visual,1.005,1,0.54
Human,5,1,1,35,Visual,TOJ,Adaptive,Duration,0.295,Visual,0.7,Visual,0.995,1,0.787
Human,5,1,1,36,Visual,TOJ,Adaptive,Duration,0.325,Visual,0.7,Visual,1.025,0,0.8
Human,5,1,1,37,Visual,TOJ,Adaptive,Duration,0.315,Visual,0.7,Visual,1.015,1,0.588
Human,5,1,1,38,Visual,TOJ,Adaptive,Duration,0.305,Visual,0.7,Visual,1.005,1,0.694
Human,5,1,1,39,Visual,TOJ,Adaptive,Duration,0.295,Visual,0.7,Visual,0.995,0,0.88
Human,5,1,1,40,Visual,TOJ,Adaptive,Duration,0.285,Visual,0.7,Visual,0.985,0,0.821
Human,5,1,1,41,Visual,TOJ,Adaptive,Duration,0.275,Visual,0.7,Visual,0.975,1,0.783
Human,5,1,1,42,Visual,TOJ,Adaptive,Duration,0.265,Visual,0.7,Visual,0.965,1,0.505
Human,5,1,1,43,Visual,TOJ,Adaptive,Duration,0.255,Visual,0.7,Visual,0.955,1,0.951
Human,5,1,1,44,Visual,TOJ,Adaptive,Duration,0.245,Visual,0.7,Visual,0.945,0,0.974
Human,5,1,1,45,Visual,TOJ,Adaptive,Duration,0.235,Visual,0.7,Visual,0.935,1,0.919
Human,5,1,1,46,Visual,TOJ,Adaptive,Duration,0.225,Visual,0.7,Visual,0.925,0,0.708
Human,5,1,1,47,Visual,TOJ,Adaptive,Duration,0.215,Visual,0.7,Visual,0.915,0,0.612
Human,5,1,1,48,Visual,TOJ,Adaptive,Duration,0.205,Visual,0.7,Visual,0.905,0,0.515
Human,5,1,1,49,Visual,TOJ,Adaptive,Duration,0.195,Visual,0.7,Visual,0.895,0,0.809
Human,5,1,1,50,Visual,TOJ,Adaptive,Duration,0.185,Visual,0.7,Visual,0.885,0,0.921
Human,6,3,1,1,Auditory,Training,Adaptive,Duration,0.3,Auditory,0.7,Auditory,1,1,0.676
Human,6,3,1,2,Auditory,Training,Adaptive,Duration,0.29,Auditory,0.99,Auditory,0.7,1,0.998
Human,6,3,1,3,Auditory,Training,Adaptive,Duration,0.28,Auditory,0.98,Auditory,0.7,1,0.634
Human,6,3,1,4,Auditory,Training,Adaptive,Duration,0.27,Auditory,0.97,Auditory,0.7,1,0.575
Human,6,3,1,5,Auditory,Training,Adaptive,Duration,0.26,Auditory,0.7,Auditory,0.96,1,0.508
Human,6,3,1,1,Auditory,TOJ,Adaptive,Duration,0.3,Auditory,1,Auditory,0.7,1,0.523
Human,6,3,1,2,Auditory,TOJ,Adaptive,Duration,0.285,Auditory,0.985,Auditory,0.7,1,0.503
Human,6,3,1,3,Auditory,TOJ,Adaptive,Duration,0.27,Auditory,0.7,Auditory,0.97,0,0.529
Human,6,3,1,4,Auditory,TOJ,Adaptive,Duration,0.255,Auditory,0.7,Auditory,0.955,1,0.828
Human,6,3,1,5,Auditory,TOJ,Adaptive,Duration,0.24,Auditory,0.94,Auditory,0.7,0,0.694
Human,6,3,1,6,Auditory,TOJ,Adaptive,Duration,0.225,Auditory,0.7,Auditory,0.925,0,0.614
Human,6,3,1,7,Auditory,TOJ,Adaptive,Duration,0.21,Auditory,0.91,Auditory,0.7,0,0.949
Human,6,3,1,8,Auditory,TOJ,Adaptive,Duration,0.195,Auditory,0.895,Auditory,0.7,1,0.6
Human,6,3,1,9,Auditory,TOJ,Adaptive,Duration,0.18,Auditory,0.88,Auditory,0.7,1,0.911
Human,6,3,1,10,Auditory,TOJ,Adaptive,Duration,0.165,Auditory,0.865,Auditory,0.7,1,0.823
Human,6,3,1,11,Auditory,TOJ,Adaptive,Duration,0.15,Auditory,0.85,Auditory,0.7,1,0.573
Human,6,3,1,12,Auditory,TOJ,Adaptive,Duration,0.195,Auditory,0.7,Auditory,0.895,1,0.822
Human,6,3,1,13,Auditory,TOJ,Adaptive,Duration,0.18,Auditory,0.88,Auditory,0.7,0,0.981
Human,6,3,1,14,Auditory,TOJ,Adaptive,Duration,0.225,Auditory,0.925,Auditory,0.7,0,0.89
Human,6,3,1,15,Auditory,TOJ,Adaptive,Duration,0.27,Auditory,0.7,Auditory,0.97,1,0.599
Human,6,3,1,16,Auditory,TOJ,Adaptive,Duration,0.255,Auditory,0.7,Auditory,0.955,1,0.733
Human,6,3,1,17,Auditory,TOJ,Adaptive,Duration,0.24,Auditory,0.94,Auditory,0.7,0,0.743
Human,6,3,1,18,Auditory,TOJ,Adaptive,Duration,0.225,Auditory,0.925,Auditory,0.7,1,0.564
Human,6,3,1,19,Auditory,TOJ,Adaptive,Duration,0.21,Auditory,0.7,Auditory,0.91,0,0.547
Human,6,3,1,20,Auditory,TOJ,Adaptive,Duration,0.195,Auditory,0.895,Auditory,0.7,0,0.8
Human,6,3,1,21,Auditory,TOJ,Adaptive,Duration,0.18,Auditory,0.88,Auditory,0.7,1,0.672
Human,6,3,1,22,Auditory,TOJ,Adaptive,Duration,0.165,Auditory,0.7,Auditory,0.865,0,0.655
Human,6,3,1,23,Auditory,TOJ,Adaptive,Duration,0.21,Auditory,0.91,Auditory,0.7,1,0.81
Human,6,3,1,24,Auditory,TOJ,Adaptive,Duration,0.195,Auditory,0.895,Auditory,0.7,1,0.615
Human,6,3,1,25,Auditory,TOJ,Adaptive,Duration,0.18,Auditory,0.88,Auditory,0.7,1,0.69
Human,6,3,1,26,Auditory,TOJ,Adaptive,Duration,0.165,Auditory,0.7,Auditory,0.865,0,0.52
Human,6,3,1,27,Auditory,TOJ,Adaptive,Duration,0.15,Auditory,0.85,Auditory,0.7,0,0.763
Human,6,3,1,28,Auditory,TOJ,Adaptive,Duration,0.135,Auditory,0.835,Auditory,0.7,1,0.913
Human,6,3,1,29,Auditory,TOJ,Adaptive,Duration,0.12,Auditory,0.7,Auditory,0.82,0,0.866
Human,6,3,1,30,Auditory,TOJ,Adaptive,Duration,0.105,Auditory,0.7,Auditory,0.805,1,0.935
Human,6,3,1,31,Auditory,TOJ,Adaptive,Duration,0.135,Auditory,0.835,Auditory,0.7,1,0.979
Human,6,3,1,32,Auditory,TOJ,Adaptive,Duration,0.125,Auditory,0.7,Auditory,0.825,0,0.661
Human,6,3,1,33,Auditory,TOJ,Adaptive,Duration,0.115,Auditory,0.7,Auditory,0.815,1,0.567
Human,6,3,1,34,Auditory,TOJ,Adaptive,Duration,0.145,Auditory,0.845,Auditory,0.7,1,0.663
Human,6,3,1,35,Auditory,TOJ,Adaptive,Duration,0.135,Auditory,0.835,Auditory,0.7,1,0.923
Human,6,3,1,36,Auditory,TOJ,Adaptive,Duration,0.125,Auditory,0.825,Auditory,0.7,1,0.954
Human,6,3,1,37,Auditory,TOJ,Adaptive,Duration,0.155,Auditory,0.855,Auditory,0.7,0,0.798
Human,6,3,1,38,Auditory,TOJ,Adaptive,Duration,0.145,Auditory,0.845,Auditory,0.7,1,0.97
Human,6,3,1,39,Auditory,TOJ,Adaptive,Duration,0.135,Auditory,0.7,Auditory,0.835,0,0.865
Human,6,3,1,40,Auditory,TOJ,Adaptive,Duration,0.125,Auditory,0.825,Auditory,0.7,0,0.877
Human,6,3,1,41,Auditory,TOJ,Adaptive,Duration,0.155,Auditory,0.855,Auditory,0.7,0,0.866
Human,6,3,1,42,Auditory,TOJ,Adaptive,Duration,0.145,Auditory,0.7,Auditory,0.845,0,0.64
Human,6,3,1,43,Auditory,TOJ,Adaptive,Duration,0.135,Auditory,0.7,Auditory,0.835,1,0.872
Human,6,3,1,44,Auditory,TOJ,Adaptive,Duration,0.125,Auditory,0.825,Auditory,0.7,0,0.61
Human,6,3,1,45,Auditory,TOJ,Adaptive,Duration,0.155,Auditory,0.7,Auditory,0.855,1,0.509
Human,6,3,1,46,Auditory,TOJ,Adaptive,Duration,0.185,Auditory,0.7,Auditory,0.885,0,0.955
Human,6,3,1,47,Auditory,TOJ,Adaptive,Duration,0.215,Auditory,0.915,Auditory,0.7,1,0.621
Human,6,3,1,48,Auditory,TOJ,Adaptive,Duration,0.205,Auditory,0.7,Auditory,0.905,0,0.892
Human,6,3,1,49,Auditory,TOJ,Adaptive,Duration,0.195,Auditory,0.7,Auditory,0.895,1,0.994
Human,6,3,1,50,Auditory,TOJ,Adaptive,Duration,0.225,Auditory,0.925,Auditory,0.7,1,0.604
Human,6,3,1,1,Tactile,Training,Adaptive,Duration,0.3,Tactile,1,Tactile,0.7,1,0.968
Human,6,3,1,2,Tactile,Training,Adaptive,Duration,0.29,Tactile,0.99,Tactile,0.7,1,0.926
Human,6,3,1,3,Tactile,Training,Adaptive,Duration,0.28,Tactile,0.98,Tactile,0.7,1,0.85
Human,6,3,1,4,Tactile,Training,Adaptive,Duration,0.27,Tactile,0.7,Tactile,0.97,1,0.984
Human,6,3,1,5,Tactile,Training,Adaptive,Duration,0.26,Tactile,0.96,Tactile,0.7,1,0.558
Human,6,3,1,1,Tactile,TOJ,Adaptive,Duration,0.3,Tactile,0.7,Tactile,1,1,0.742
Human,6,3,1,2,Tactile,TOJ,Adaptive,Duration,0.345,Tactile,0.7,Tactile,1.045,0,0.855
Human,6,3,1,3,Tactile,TOJ,Adaptive,Duration,0.33,Tactile,1.03,Tactile,0.7,0,0.815
Human,6,3,1,4,Tactile,TOJ,Adaptive,Duration,0.315,Tactile,0.7,Tactile,1.015,0,0.857
Human,6,3,1,5,Tactile,TOJ,Adaptive,Duration,0.36,Tactile,1.06,Tactile,0.7,1,0.861
Human,6,3,1,6,Tactile,TOJ,Adaptive,Duration,0.345,Tactile,0.7,Tactile,1.045,0,0.849
Human,6,3,1,7,Tactile,TOJ,Adaptive,Duration,0.33,Tactile,0.7,Tactile,1.03,1,0.8
Human,6,3,1,8,Tactile,TOJ,Adaptive,Duration,0.315,Tactile,1.015,Tactile,0.7,0,0.832
Human,6,3,1,9,Tactile,TOJ,Adaptive,Duration,0.3,Tactile,1,Tactile,0.7,1,0.636
Human,6,3,1,10,Tactile,TOJ,Adaptive,Duration,0.345,Tactile,0.7,Tactile,1.045,1,0.588
Human,6,3,1,11,Tactile,TOJ,Adaptive,Duration,0.33,Tactile,1.03,Tactile,0.7,0,0.54
Human,6,3,1,12,Tactile,TOJ,Adaptive,Duration,0.375,Tactile,0.7,Tactile,1.075,1,0.932
Human,6,3,1,13,Tactile,TOJ,Adaptive,Duration,0.36,Tactile,1.06,Tactile,0.7,0,0.636
Human,6,3,1,14,Tactile,TOJ,Adaptive,Duration,0.345,Tactile,0.7,Tactile,1.045,0,0.943
Human,6,3,1,15,Tactile,TOJ,Adaptive,Duration,0.33,Tactile,1.03,Tactile,0.7,0,0.879
Human,6,3,1,16,Tactile,TOJ,Adaptive,Duration,0.315,Tactile,0.7,Tactile,1.015,0,0.681
Human,6,3,1,17,Tactile,TOJ,Adaptive,Duration,0.36,Tactile,0.7,Tactile,1.06,0,0.885
Human,6,3,1,18,Tactile,TOJ,Adaptive,Duration,0.345,Tactile,1.045,Tactile,0.7,0,0.748
Human,6,3,1,19,Tactile,TOJ,Adaptive,Duration,0.33,Tactile,1.03,Tactile,0.7,1,0.826
Human,6,3,1,20,Tactile,TOJ,Adaptive,Duration,0.315,Tactile,0.7,Tactile,1.015,0,0.585
Human,6,3,1,21,Tactile,TOJ,Adaptive,Duration,0.3,Tactile,1,Tactile,0.7,0,0.631
Human,6,3,1,22,Tactile,TOJ,Adaptive,Duration,0.285,Tactile,0.985,Tactile,0.7,1,0.536
Human,6,3,1,23,Tactile,TOJ,Adaptive,Duration,0.27,Tactile,0.7,Tactile,0.97,0,0.967
Human,6,3,1,24,Tactile,TOJ,Adaptive,Duration,0.255,Tactile,0.7,Tactile,0.955,1,0.599
Human,6,3,1,25,Tactile,TOJ,Adaptive,Duration,0.24,Tactile,0.94,Tactile,0.7,0,0.907
Human,6,3,1,26,Tactile,TOJ,Adaptive,Duration,0.225,Tactile,0.7,Tactile,0.925,0,0.978
Human,6,3,1,27,Tactile,TOJ,Adaptive,Duration,0.21,Tactile,0.91,Tactile,0.7,0,0.62
Human,6,3,1,28,Tactile,TOJ,Adaptive,Duration,0.255,Tactile,0.955,Tactile,0.7,0,0.73
Human,6,3,1,29,Tactile,TOJ,Adaptive,Duration,0.24,Tactile,0.94,Tactile,0.7,1,0.562
Human,6,3,1,30,Tactile,TOJ,Adaptive,Duration,0.285,Tactile,0.7,Tactile,0.985,1,0.713
Human,6,3,1,31,Tactile,TOJ,Adaptive,Duration,0.275,Tactile,0.7,Tactile,0.975,1,0.646
Human,6,3,1,32,Tactile,TOJ,Adaptive,Duration,0.265,Tactile,0.965,Tactile,0.7,0,0.759
Human,6,3,1,33,Tactile,TOJ,Adaptive,Duration,0.295,Tactile,0.7,Tactile,0.995,1,0.701
Human,6,3,1,34,Tactile,TOJ,Adaptive,Duration,0.285,Tactile,0.7,Tactile,0.985,1,0.625
Human,6,3,1,35,Tactile,TOJ,Adaptive,Duration,0.275,Tactile,0.7,Tactile,0.975,1,0.992
Human,6,3,1,36,Tactile,TOJ,Adaptive,Duration,0.265,Tactile,0.965,Tactile,0.7,0,0.735
Human,6,3,1,37,Tactile,TOJ,Adaptive,Duration,0.255,Tactile,0.955,Tactile,0.7,1,0.96
Human,6,3,1,38,Tactile,TOJ,Adaptive,Duration,0.245,Tactile,0.7,Tactile,0.945,0,0.829
Human,6,3,1,39,Tactile,TOJ,Adaptive,Duration,0.275,Tactile,0.7,Tactile,0.975,0,0.798
Human,6,3,1,40,Tactile,TOJ,Adaptive,Duration,0.265,Tactile,0.965,Tactile,0.7,0,0.577
Human,6,3,1,41,Tactile,TOJ,Adaptive,Duration,0.295,Tactile,0.7,Tactile,0.995,1,0.51
Human,6,3,1,42,Tactile,TOJ,Adaptive,Duration,0.285,Tactile,0.985,Tactile,0.7,0,0.934
Human,6,3,1,43,Tactile,TOJ,Adaptive,Duration,0.315,Tactile,1.015,Tactile,0.7,0,0.536
Human,6,3,1,44,Tactile,TOJ,Adaptive,Duration,0.305,Tactile,1.005,Tactile,0.7,1,0.921
Human,6,3,1,45,Tactile,TOJ,Adaptive,Duration,0.295,Tactile,0.7,Tactile,0.995,0,0.689
Human,6,3,1,46,Tactile,TOJ,Adaptive,Duration,0.285,Tactile,0.985,Tactile,0.7,0,0.892
Human,6,3,1,47,Tactile,TOJ,Adaptive,Duration,0.315,Tactile,1.015,Tactile,0.7,0,0.633
Human,6,3,1,48,Tactile,TOJ,Adaptive,Duration,0.305,Tactile,1.005,Tactile,0.7,1,0.558
Human,6,3,1,49,Tactile,TOJ,Adaptive,Duration,0.295,Tactile,0.995,Tactile,0.7,1,0.519
Human,6,3,1,50,Tactile,TOJ,Adaptive,Duration,0.325,Tactile,1.025,Tactile,0.7,0,0.883
Human,6,3,1,1,Visual,Training,Adaptive,Duration,0.3,Visual,0.7,Visual,1,0,0.844
Human,6,3,1,2,Visual,Training,Adaptive,Duration,0.33,Visual,0.7,Visual,1.03,1,0.747
Human,6,3,1,3,Visual,Training,Adaptive,Duration,0.32,Visual,0.7,Visual,1.02,1,1
Human,6,3,1,4,Visual,Training,Adaptive,Duration,0.31,Visual,0.7,Visual,1.01,1,0.544
Human,6,3,1,5,Visual,Training,Adaptive,Duration,0.3,Visual,0.7,Visual,1,1,0.677
Human,6,3,1,1,Visual,TOJ,Adaptive,Duration,0.3,Visual,0.7,Visual,1,0,0.603
Human,6,3,1,2,Visual,TOJ,Adaptive,Duration,0.285,Visual,0.7,Visual,0.985,0,0.549
Human,6,3,1,3,Visual,TOJ,Adaptive,Duration,0.27,Visual,0.7,Visual,0.97,1,0.941
Human,6,3,1,4,Visual,TOJ,Adaptive,Duration,0.255,Visual,0.7,Visual,0.955,1,0.758
Human,6,3,1,5,Visual,TOJ,Adaptive,Duration,0.24,Visual,0.7,Visual,0.94,1,0.876
Human,6,3,1,6,Visual,TOJ,Adaptive,Duration,0.225,Visual,0.7,Visual,0.925,1,0.626
Human,6,3,1,7,Visual,TOJ,Adaptive,Duration,0.21,Visual,0.7,Visual,0.91,0,0.793
Human,6,3,1,8,Visual,TOJ,Adaptive,Duration,0.195,Visual,0.7,Visual,0.895,1,0.975
Human,6,3,1,9,Visual,TOJ,Adaptive,Duration,0.24,Visual,0.7,Visual,0.94,0,0.801
Human,6,3,1,10,Visual,TOJ,Adaptive,Duration,0.225,Visual,0.7,Visual,0.925,0,0.622
Human,6,3,1,11,Visual,TOJ,Adaptive,Duration,0.21,Visual,0.7,Visual,0.91,0,0.75
Human,6,3,1,12,Visual,TOJ,Adaptive,Duration,0.195,Visual,0.7,Visual,0.895,1,0.668
Human,6,3,1,13,Visual,TOJ,Adaptive,Duration,0.18,Visual,0.7,Visual,0.88,1,0.609
Human,6,3,1,14,Visual,TOJ,Adaptive,Duration,0.225,Visual,0.7,Visual,0.925,1,0.531
Human,6,3,1,15,Visual,TOJ,Adaptive,Duration,0.27,Visual,0.7,Visual,0.97,1,0.733
Human,6,3,1,16,Visual,TOJ,Adaptive,Duration,0.255,Visual,0.7,Visual,0.955,0,0.799
Human,6,3,1,17,Visual,TOJ,Adaptive,Duration,0.24,Visual,0.7,Visual,0.94,0,0.93
Human,6,3,1,18,Visual,TOJ,Adaptive,Duration,0.225,Visual,0.7,Visual,0.925,1,0.822
Human,6,3,1,19,Visual,TOJ,Adaptive,Duration,0.27,Visual,0.7,Visual,0.97,1,0.672
Human,6,3,1,20,Visual,TOJ,Adaptive,Duration,0.315,Visual,0.7,Visual,1.015,0,0.833
Human,6,3,1,21,Visual,TOJ,Adaptive,Duration,0.36,Visual,0.7,Visual,1.06,0,0.733
Human,6,3,1,22,Visual,TOJ,Adaptive,Duration,0.345,Visual,0.7,Visual,1.045,1,0.852
Human,6,3,1,23,Visual,TOJ,Adaptive,Duration,0.33,Visual,0.7,Visual,1.03,0,0.897
Human,6,3,1,24,Visual,TOJ,Adaptive,Duration,0.315,Visual,0.7,Visual,1.015,1,0.882
Human,6,3,1,25,Visual,TOJ,Adaptive,Duration,0.3,Visual,0.7,Visual,1,1,0.899
Human,6,3,1,26,Visual,TOJ,Adaptive,Duration,0.345,Visual,0.7,Visual,1.045,1,0.655
Human,6,3,1,27,Visual,TOJ,Adaptive,Duration,0.33,Visual,0.7,Visual,1.03,0,0.634
Human,6,3,1,28,Visual,TOJ,Adaptive,Duration,0.375,Visual,0.7,Visual,1.075,0,0.558
Human,6,3,1,29,Visual,TOJ,Adaptive,Duration,0.36,Visual,0.7,Visual,1.06,0,0.732
Human,6,3,1,30,Visual,TOJ,Adaptive,Duration,0.345,Visual,0.7,Visual,1.045,1,0.808
Human,6,3,1,31,Visual,TOJ,Adaptive,Duration,0.335,Visual,0.7,Visual,1.035,0,0.5
Human,6,3,1,32,Visual,TOJ,Adaptive,Duration,0.365,Visual,0.7,Visual,1.065,0,0.71
Human,6,3,1,33,Visual,TOJ,Adaptive,Duration,0.355,Visual,0.7,Visual,1.055,1,0.524
Human,6,3,1,34,Visual,TOJ,Adaptive,Duration,0.345,Visual,0.7,Visual,1.045,1,0.774
Human,6,3,1,35,Visual,TOJ,Adaptive,Duration,0.335,Visual,0.7,Visual,1.035,1,0.766
Human,6,3,1,36,Visual,TOJ,Adaptive,Duration,0.325,Visual,0.7,Visual,1.025,0,0.956
Human,6,3,1,37,Visual,TOJ,Adaptive,Duration,0.315,Visual,0.7,Visual,1.015,1,0.841
Human,6,3,1,38,Visual,TOJ,Adaptive,Duration,0.305,Visual,0.7,Visual,1.005,0,0.618
Human,6,3,1,39,Visual,TOJ,Adaptive,Duration,0.335,Visual,0.7,Visual,1.035,0,0.867
Human,6,3,1,40,Visual,TOJ,Adaptive,Duration,0.365,Visual,0.7,Visual,1.065,1,0.993
Human,6,3,1,41,Visual,TOJ,Adaptive,Duration,0.395,Visual,0.7,Visual,1.095,1,0.641
Human,6,3,1,42,Visual,TOJ,Adaptive,Duration,0.385,Visual,0.7,Visual,1.085,1,0.583
Human,6,3,1,43,Visual,TOJ,Adaptive,Duration,0.375,Visual,0.7,Visual,1.075,0,0.936
Human,6,3,1,44,Visual,TOJ,Adaptive,Duration,0.405,Visual,0.7,Visual,1.105,0,0.796
Human,6,3,1,45,Visual,TOJ,Adaptive,Duration,0.435,Visual,0.7,Visual,1.135,1,0.577
Human,6,3,1,46,Visual,TOJ,Adaptive,Duration,0.465,Visual,0.7,Visual,1.165,0,0.958
Human,6,3,1,47,Visual,TOJ,Adaptive,Duration,0.455,Visual,0.7,Visual,1.155,1,0.855
Human,6,3,1,48,Visual,TOJ,Adaptive,Duration,0.445,Visual,0.7,Visual,1.145,0,0.961
Human,6,3,1,49,Visual,TOJ,Adaptive,Duration,0.475,Visual,0.7,Visual,1.175,1,0.583
Human,6,3,1,50,Visual,TOJ,Adaptive,Duration,0.505,Visual,0.7,Visual,1.205,0,0.89
Human,7,3,1,1,Visual,Training,Adaptive,Duration,0.3,Visual,0.7,Visual,1,1,0.826
Human,7,3,1,2,Visual,Training,Adaptive,Duration,0.29,Visual,0.7,Visual,0.99,0,0.551
Human,7,3,1,3,Visual,Training,Adaptive,Duration,0.32,Visual,0.7,Visual,1.02,1,0.913
Human,7,3,1,4,Visual,Training,Adaptive,Duration,0.31,Visual,0.7,Visual,1.01,1,0.674
Human,7,3,1,5,Visual,Training,Adaptive,Duration,0.3,Visual,0.7,Visual,1,1,0.844
Human,7,3,1,1,Visual,TOJ,Adaptive,Duration,0.3,Visual,0.7,Visual,1,0,0.543
Human,7,3,1,2,Visual,TOJ,Adaptive,Duration,0.285,Visual,0.7,Visual,0.985,0,0.888
Human,7,3,1,3,Visual,TOJ,Adaptive,Duration,0.27,Visual,0.7,Visual,0.97,1,0.509
Human,7,3,1,4,Visual,TOJ,Adaptive,Duration,0.255,Visual,0.7,Visual,0.955,1,0.796
Human,7,3,1,5,Visual,TOJ,Adaptive,Duration,0.24,Visual,0.7,Visual,0.94,0,0.583
Human,7,3,1,6,Visual,TOJ,Adaptive,Duration,0.225,Visual,0.7,Visual,0.925,1,0.805
Human,7,3,1,7,Visual,TOJ,Adaptive,Duration,0.27,Visual,0.7,Visual,0.97,0,0.614
Human,7,3,1,8,Visual,TOJ,Adaptive,Duration,0.255,Visual,0.7,Visual,0.955,1,0.773
Human,7,3,1,9,Visual,TOJ,Adaptive,Duration,0.24,Visual,0.7,Visual,0.94,0,0.565
Human,7,3,1,10,Visual,TOJ,Adaptive,Duration,0.225,Visual,0.7,Visual,0.925,0,0.624
Human,7,3,1,11,Visual,TOJ,Adaptive,Duration,0.27,Visual,0.7,Visual,0.97,0,0.949
Human,7,3,1,12,Visual,TOJ,Adaptive,Duration,0.315,Visual,0.7,Visual,1.015,0,0.768
Human,7,3,1,13,Visual,TOJ,Adaptive,Duration,0.36,Visual,0.7,Visual,1.06,0,0.827
Human,7,3,1,14,Visual,TOJ,Adaptive,Duration,0.345,Visual,0.7,Visual,1.045,1,0.914
Human,7,3,1,15,Visual,TOJ,Adaptive,Duration,0.33,Visual,0.7,Visual,1.03,1,0.82
Human,7,3,1,16,Visual,TOJ,Adaptive,Duration,0.315,Visual,0.7,Visual,1.015,1,0.77
Human,7,3,1,17,Visual,TOJ,Adaptive,Duration,0.3,Visual,0.7,Visual,1,1,0.537
Human,7,3,1,18,Visual,TOJ,Adaptive,Duration,0.285,Visual,0.7,Visual,0.985,1,0.984
Human,7,3,1,19,Visual,TOJ,Adaptive,Duration,0.33,Visual,0.7,Visual,1.03,0,0.935
Human,7,3,1,20,Visual,TOJ,Adaptive,Duration,0.375,Visual,0.7,Visual,1.075,0,0.527
Human,7,3,1,21,Visual,TOJ,Adaptive,Duration,0.36,Visual,0.7,Visual,1.06,1,0.681
Human,7,3,1,22,Visual,TOJ,Adaptive,Duration,0.345,Visual,0.7,Visual,1.045,1,0.964
Human,7,3,1,23,Visual,TOJ,Adaptive,Duration,0.33,Visual,0.7,Visual,1.03,0,0.772
Human,7,3,1,24,Visual,TOJ,Adaptive,Duration,0.315,Visual,0.7,Visual,1.015,1,0.634
Human,7,3,1,25,Visual,TOJ,Adaptive,Duration,0.3,Visual,0.7,Visual,1,1,0.606
Human,7,3,1,26,Visual,TOJ,Adaptive,Duration,0.285,Visual,0.7,Visual,0.985,0,0.571
Human,7,3,1,27,Visual,TOJ,Adaptive,Duration,0.33,Visual,0.7,Visual,1.03,1,0.887
Human,7,3,1,28,Visual,TOJ,Adaptive,Duration,0.315,Visual,0.7,Visual,1.015,0,0.58
Human,7,3,1,29,Visual,TOJ,Adaptive,Duration,0.3,Visual,0.7,Visual,1,1,0.954
Human,7,3,1,30,Visual,TOJ,Adaptive,Duration,0.285,Visual,0.7,Visual,0.985,0,0.937
Human,7,3,1,31,Visual,TOJ,Adaptive,Duration,0.275,Visual,0.7,Visual,0.975,1,0.571
Human,7,3,1,32,Visual,TOJ,Adaptive,Duration,0.265,Visual,0.7,Visual,0.965,1,0.783
Human,7,3,1,33,Visual,TOJ,Adaptive,Duration,0.255,Visual,0.7,Visual,0.955,0,0.789
Human,7,3,1,34,Visual,TOJ,Adaptive,Duration,0.245,Visual,0.7,Visual,0.945,0,0.817
Human,7,3,1,35,Visual,TOJ,Adaptive,Duration,0.235,Visual,0.7,Visual,0.935,1,0.819
Human,7,3,1,36,Visual,TOJ,Adaptive,Duration,0.225,Visual,0.7,Visual,0.925,1,0.689
Human,7,3,1,37,Visual,TOJ,Adaptive,Duration,0.215,Visual,0.7,Visual,0.915,0,0.725
Human,7,3,1,38,Visual,TOJ,Adaptive,Duration,0.205,Visual,0.7,Visual,0.905,1,0.817
Human,7,3,1,39,Visual,TOJ,Adaptive,Duration,0.235,Visual,0.7,Visual,0.935,0,0.57
Human,7,3,1,40,Visual,TOJ,Adaptive,Duration,0.225,Visual,0.7,Visual,0.925,0,0.572
Human,7,3,1,41,Visual,TOJ,Adaptive,Duration,0.215,Visual,0.7,Visual,0.915,1,0.821
Human,7,3,1,42,Visual,TOJ,Adaptive,Duration,0.205,Visual,0.7,Visual,0.905,1,0.834
Human,7,3,1,43,Visual,TOJ,Adaptive,Duration,0.195,Visual,0.7,Visual,0.895,0,0.632
Human,7,3,1,44,Visual,TOJ,Adaptive,Duration,0.185,Visual,0.7,Visual,0.885,1,0.566
Human,7,3,1,45,Visual,TOJ,Adaptive,Duration,0.175,Visual,0.7,Visual,0.875,0,0.565
Human,7,3,1,46,Visual,TOJ,Adaptive,Duration,0.165,Visual,0.7,Visual,0.865,0,0.643
Human,7,3,1,47,Visual,TOJ,Adaptive,Duration,0.155,Visual,0.7,Visual,0.855,0,0.909
Human,7,3,1,48,Visual,TOJ,Adaptive,Duration,0.145,Visual,0.7,Visual,0.845,1,0.681
Human,7,3,1,49,Visual,TOJ,Adaptive,Duration,0.135,Visual,0.7,Visual,0.835,1,0.733
Human,7,3,1,50,Visual,TOJ,Adaptive,Duration,0.165,Visual,0.7,Visual,0.865,0,0.953
Human,7,3,1,1,Auditory,Training,Adaptive,Duration,0.3,Auditory,0.7,Auditory,1,0,0.884
Human,7,3,1,2,Auditory,Training,Adaptive,Duration,0.33,Auditory,1.03,Auditory,0.7,1,0.509
Human,7,3,1,3,Auditory,Training,Adaptive,Duration,0.32,Auditory,0.7,Auditory,1.02,1,0.562
Human,7,3,1,4,Auditory,Training,Adaptive,Duration,0.31,Auditory,0.7,Auditory,1.01,1,0.665
Human,7,3,1,5,Auditory,Training,Adaptive,Duration,0.3,Auditory,0.7,Auditory,1,0,0.699
Human,7,3,1,1,Auditory,TOJ,Adaptive,Duration,0.3,Auditory,0.7,Auditory,1,1,0.895
Human,7,3,1,2,Auditory,TOJ,Adaptive,Duration,0.285,Auditory,0.7,Auditory,0.985,1,0.659
Human,7,3,1,3,Auditory,TOJ,Adaptive,Duration,0.27,Auditory,0.7,Auditory,0.97,1,0.557
Human,7,3,1,4,Auditory,TOJ,Adaptive,Duration,0.255,Auditory,0.7,Auditory,0.955,1,0.924
Human,7,3,1,5,Auditory,TOJ,Adaptive,Duration,0.24,Auditory,0.7,Auditory,0.94,1,0.87
Human,7,3,1,6,Auditory,TOJ,Adaptive,Duration,0.225,Auditory,0.7,Auditory,0.925,1,0.74
Human,7,3,1,7,Auditory,TOJ,Adaptive,Duration,0.21,Auditory,0.91,Auditory,0.7,0,0.652
Human,7,3,1,8,Auditory,TOJ,Adaptive,Duration,0.195,Auditory,0.895,Auditory,0.7,1,0.668
Human,7,3,1,9,Auditory,TOJ,Adaptive,Duration,0.18,Auditory,0.7,Auditory,0.88,0,0.833
Human,7,3,1,10,Auditory,TOJ,Adaptive,Duration,0.165,Auditory,0.865,Auditory,0.7,0,0.536
Human,7,3,1,11,Auditory,TOJ,Adaptive,Duration,0.15,Auditory,0.85,Auditory,0.7,1,0.688
Human,7,3,1,12,Auditory,TOJ,Adaptive,Duration,0.135,Auditory,0.7,Auditory,0.835,0,0.805
Human,7,3,1,13,Auditory,TOJ,Adaptive,Duration,0.18,Auditory,0.7,Auditory,0.88,0,0.729
Human,7,3,1,14,Auditory,TOJ,Adaptive,Duration,0.165,Auditory,0.7,Auditory,0.865,1,0.945
Human,7,3,1,15,Auditory,TOJ,Adaptive,Duration,0.21,Auditory,0.7,Auditory,0.91,0,0.82
Human,7,3,1,16,Auditory,TOJ,Adaptive,Duration,0.195,Auditory,0.7,Auditory,0.895,1,0.915
Human,7,3,1,17,Auditory,TOJ,Adaptive,Duration,0.24,Auditory,0.94,Auditory,0.7,1,0.671
Human,7,3,1,18,Auditory,TOJ,Adaptive,Duration,0.225,Auditory,0.7,Auditory,0.925,0,0.699
Human,7,3,1,19,Auditory,TOJ,Adaptive,Duration,0.21,Auditory,0.91,Auditory,0.7,0,0.602
Human,7,3,1,20,Auditory,TOJ,Adaptive,Duration,0.195,Auditory,0.895,Auditory,0.7,1,0.967
Human,7,3,1,21,Auditory,TOJ,Adaptive,Duration,0.18,Auditory,0.88,Auditory,0.7,1,0.706
Human,7,3,1,22,Auditory,TOJ,Adaptive,Duration,0.165,Auditory,0.7,Auditory,0.865,0,0.822
Human,7,3,1,23,Auditory,TOJ,Adaptive,Duration,0.21,Auditory,0.91,Auditory,0.7,1,0.647
Human,7,3,1,24,Auditory,TOJ,Adaptive,Duration,0.195,Auditory,0.7,Auditory,0.895,0,0.625
Human,7,3,1,25,Auditory,TOJ,Adaptive,Duration,0.18,Auditory,0.7,Auditory,0.88,1,0.602
Human,7,3,1,26,Auditory,TOJ,Adaptive,Duration,0.165,Auditory,0.7,Auditory,0.865,1,0.764
Human,7,3,1,27,Auditory,TOJ,Adaptive,Duration,0.15,Auditory,0.7,Auditory,0.85,1,0.968
Human,7,3,1,28,Auditory,TOJ,Adaptive,Duration,0.195,Auditory,0.895,Auditory,0.7,1,0.601
Human,7,3,1,29,Auditory,TOJ,Adaptive,Duration,0.18,Auditory,0.7,Auditory,0.88,0,0.766
Human,7,3,1,30,Auditory,TOJ,Adaptive,Duration,0.225,Auditory,0.925,Auditory,0.7,1,0.617
Human,7,3,1,31,Auditory,TOJ,Adaptive,Duration,0.215,Auditory,0.7,Auditory,0.915,0,0.939
Human,7,3,1,32,Auditory,TOJ,Adaptive,Duration,0.245,Auditory,0.7,Auditory,0.945,0,0.811
Human,7,3,1,33,Auditory,TOJ,Adaptive,Duration,0.235,Auditory,0.7,Auditory,0.935,1,0.865
Human,7,3,1,34,Auditory,TOJ,Adaptive,Duration,0.225,Auditory,0.925,Auditory,0.7,0,0.591
Human,7,3,1,35,Auditory,TOJ,Adaptive,Duration,0.255,Auditory,0.7,Auditory,0.955,1,0.777
Human,7,3,1,36,Auditory,TOJ,Adaptive,Duration,0.245,Auditory,0.945,Auditory,0.7,0,0.748
Human,7,3,1,37,Auditory,TOJ,Adaptive,Duration,0.235,Auditory,0.7,Auditory,0.935,0,0.869
Human,7,3,1,38,Auditory,TOJ,Adaptive,Duration,0.265,Auditory,0.965,Auditory,0.7,1,0.832
Human,7,3,1,39,Auditory,TOJ,Adaptive,Duration,0.255,Auditory,0.955,Auditory,0.7,1,0.722
Human,7,3,1,40,Auditory,TOJ,Adaptive,Duration,0.245,Auditory,0.945,Auditory,0.7,1,0.618
Human,7,3,1,41,Auditory,TOJ,Adaptive,Duration,0.235,Auditory,0.935,Auditory,0.7,1,0.885
Human,7,3,1,42,Auditory,TOJ,Adaptive,Duration,0.225,Auditory,0.7,Auditory,0.925,0,0.529
Human,7,3,1,43,Auditory,TOJ,Adaptive,Duration,0.255,Auditory,0.7,Auditory,0.955,0,0.728
Human,7,3,1,44,Auditory,TOJ,Adaptive,Duration,0.245,Auditory,0.7,Auditory,0.945,1,0.653
Human,7,3,1,45,Auditory,TOJ,Adaptive,Duration,0.235,Auditory,0.7,Auditory,0.935,1,0.79
Human,7,3,1,46,Auditory,TOJ,Adaptive,Duration,0.265,Auditory,0.7,Auditory,0.965,0,0.87
Human,7,3,1,47,Auditory,TOJ,Adaptive,Duration,0.255,Auditory,0.7,Auditory,0.955,1,0.686
Human,7,3,1,48,Auditory,TOJ,Adaptive,Duration,0.245,Auditory,0.7,Auditory,0.945,1,0.569
Human,7,3,1,49,Auditory,TOJ,Adaptive,Duration,0.235,Auditory,0.7,Auditory,0.935,1,0.552
Human,7,3,1,50,Auditory,TOJ,Adaptive,Duration,0.225,Auditory,0.7,Auditory,0.925,1,0.897
Human,7,3,1,1,Tactile,Training,Adaptive,Duration,0.3,Tactile,1,Tactile,0.7,1,0.903
Human,7,3,1,2,Tactile,Training,Adaptive,Duration,0.29,Tactile,0.99,Tactile,0.7,1,0.941
Human,7,3,1,3,Tactile,Training,Adaptive,Duration,0.28,Tactile,0.98,Tactile,0.7,1,0.604
Human,7,3,1,4,Tactile,Training,Adaptive,Duration,0.27,Tactile,0.97,Tactile,0.7,1,0.732
Human,7,3,1,5,Tactile,Training,Adaptive,Duration,0.26,Tactile,0.96,Tactile,0.7,1,0.53
Human,7,3,1,1,Tactile,TOJ,Adaptive,Duration,0.3,Tactile,0.7,Tactile,1,0,0.575
Human,7,3,1,2,Tactile,TOJ,Adaptive,Duration,0.285,Tactile,0.7,Tactile,0.985,1,0.841
Human,7,3,1,3,Tactile,TOJ,Adaptive,Duration,0.27,Tactile,0.7,Tactile,0.97,1,0.819
Human,7,3,1,4,Tactile,TOJ,Adaptive,Duration,0.315,Tactile,0.7,Tactile,1.015,0,0.596
Human,7,3,1,5,Tactile,TOJ,Adaptive,Duration,0.3,Tactile,1,Tactile,0.7,0,0.739
Human,7,3,1,6,Tactile,TOJ,Adaptive,Duration,0.285,Tactile,0.985,Tactile,0.7,1,0.858
Human,7,3,1,7,Tactile,TOJ,Adaptive,Duration,0.27,Tactile,0.7,Tactile,0.97,0,0.573
Human,7,3,1,8,Tactile,TOJ,Adaptive,Duration,0.255,Tactile,0.7,Tactile,0.955,1,0.968
Human,7,3,1,9,Tactile,TOJ,Adaptive,Duration,0.3,Tactile,1,Tactile,0.7,1,0.881
Human,7,3,1,10,Tactile,TOJ,Adaptive,Duration,0.285,Tactile,0.7,Tactile,0.985,0,0.843
Human,7,3,1,11,Tactile,TOJ,Adaptive,Duration,0.33,Tactile,0.7,Tactile,1.03,0,0.735
Human,7,3,1,12,Tactile,TOJ,Adaptive,Duration,0.315,Tactile,1.015,Tactile,0.7,0,0.93
Human,7,3,1,13,Tactile,TOJ,Adaptive,Duration,0.3,Tactile,0.7,Tactile,1,0,0.934
Human,7,3,1,14,Tactile,TOJ,Adaptive,Duration,0.345,Tactile,0.7,Tactile,1.045,0,0.998
Human,7,3,1,15,Tactile,TOJ,Adaptive,Duration,0.39,Tactile,1.09,Tactile,0.7,1,0.65
Human,7,3,1,16,Tactile,TOJ,Adaptive,Duration,0.375,Tactile,0.7,Tactile,1.075,0,0.839
Human,7,3,1,17,Tactile,TOJ,Adaptive,Duration,0.36,Tactile,1.06,Tactile,0.7,0,0.952
Human,7,3,1,18,Tactile,TOJ,Adaptive,Duration,0.345,Tactile,1.045,Tactile,0.7,1,0.875
Human,7,3,1,19,Tactile,TOJ,Adaptive,Duration,0.33,Tactile,1.03,Tactile,0.7,1,0.527
Human,7,3,1,20,Tactile,TOJ,Adaptive,Duration,0.315,Tactile,0.7,Tactile,1.015,0,0.928
Human,7,3,1,21,Tactile,TOJ,Adaptive,Duration,0.36,Tactile,0.7,Tactile,1.06,0,0.659
Human,7,3,1,22,Tactile,TOJ,Adaptive,Duration,0.345,Tactile,1.045,Tactile,0.7,0,0.643
Human,7,3,1,23,Tactile,TOJ,Adaptive,Duration,0.33,Tactile,0.7,Tactile,1.03,0,0.719
Human,7,3,1,24,Tactile,TOJ,Adaptive,Duration,0.315,Tactile,0.7,Tactile,1.015,1,0.94
Human,7,3,1,25,Tactile,TOJ,Adaptive,Duration,0.36,Tactile,1.06,Tactile,0.7,1,0.642
Human,7,3,1,26,Tactile,TOJ,Adaptive,Duration,0.345,Tactile,1.045,Tactile,0.7,1,0.55
Human,7,3,1,27,Tactile,TOJ,Adaptive,Duration,0.33,Tactile,0.7,Tactile,1.03,0,0.897
Human,7,3,1,28,Tactile,TOJ,Adaptive,Duration,0.375,Tactile,0.7,Tactile,1.075,0,0.848
Human,7,3,1,29,Tactile,TOJ,Adaptive,Duration,0.42,Tactile,1.12,Tactile,0.7,1,0.934
Human,7,3,1,30,Tactile,TOJ,Adaptive,Duration,0.405,Tactile,0.7,Tactile,1.105,0,0.783
Human,7,3,1,31,Tactile,TOJ,Adaptive,Duration,0.435,Tactile,0.7,Tactile,1.135,0,0.893
Human,7,3,1,32,Tactile,TOJ,Adaptive,Duration,0.425,Tactile,0.7,Tactile,1.125,1,0.526
Human,7,3,1,33,Tactile,TOJ,Adaptive,Duration,0.415,Tactile,1.115,Tactile,0.7,0,0.604
Human,7,3,1,34,Tactile,TOJ,Adaptive,Duration,0.405,Tactile,0.7,Tactile,1.105,0,0.76
Human,7,3,1,35,Tactile,TOJ,Adaptive,Duration,0.395,Tactile,0.7,Tactile,1.095,1,0.504
Human,7,3,1,36,Tactile,TOJ,Adaptive,Duration,0.385,Tactile,1.085,Tactile,0.7,0,0.545
Human,7,3,1,37,Tactile,TOJ,Adaptive,Duration,0.375,Tactile,0.7,Tactile,1.075,0,0.732
Human,7,3,1,38,Tactile,TOJ,Adaptive,Duration,0.365,Tactile,1.065,Tactile,0.7,0,0.815
Human,7,3,1,39,Tactile,TOJ,Adaptive,Duration,0.355,Tactile,0.7,Tactile,1.055,0,0.537
Human,7,3,1,40,Tactile,TOJ,Adaptive,Duration,0.345,Tactile,1.045,Tactile,0.7,0,0.635
Human,7,3,1,41,Tactile,TOJ,Adaptive,Duration,0.335,Tactile,1.035,Tactile,0.7,1,0.535
Human,7,3,1,42,Tactile,TOJ,Adaptive,Duration,0.325,Tactile,0.7,Tactile,1.025,0,0.937
Human,7,3,1,43,Tactile,TOJ,Adaptive,Duration,0.355,Tactile,0.7,Tactile,1.055,0,0.949
Human,7,3,1,44,Tactile,TOJ,Adaptive,Duration,0.385,Tactile,1.085,Tactile,0.7,1,0.55
Human,7,3,1,45,Tactile,TOJ,Adaptive,Duration,0.375,Tactile,0.7,Tactile,1.075,0,0.899
Human,7,3,1,46,Tactile,TOJ,Adaptive,Duration,0.365,Tactile,1.065,Tactile,0.7,0,0.509
Human,7,3,1,47,Tactile,TOJ,Adaptive,Duration,0.395,Tactile,1.095,Tactile,0.7,0,0.981
Human,7,3,1,48,Tactile,TOJ,Adaptive,Duration,0.425,Tactile,1.125,Tactile,0.7,0,0.88
Human,7,3,1,49,Tactile,TOJ,Adaptive,Duration,0.415,Tactile,1.115,Tactile,0.7,1,0.703
Human,7,3,1,50,Tactile,TOJ,Adaptive,Duration,0.405,Tactile,1.105,Tactile,0.7,1,0.881
Human,8,2,1,1,Visual,Training,Adaptive,Duration,0.3,Visual,0.7,Visual,1,0,0.651
Human,8,2,1,2,Visual,Training,Adaptive,Duration,0.33,Visual,0.7,Visual,1.03,1,0.544
Human,8,2,1,3,Visual,Training,Adaptive,Duration,0.32,Visual,0.7,Visual,1.02,1,0.93
Human,8,2,1,4,Visual,Training,Adaptive,Duration,0.31,Visual,0.7,Visual,1.01,0,0.842
Human,8,2,1,5,Visual,Training,Adaptive,Duration,0.34,Visual,0.7,Visual,1.04,1,0.871
Human,8,2,1,1,Visual,TOJ,Adaptive,Duration,0.3,Visual,0.7,Visual,1,0,0.789
Human,8,2,1,2,Visual,TOJ,Adaptive,Duration,0.345,Visual,0.7,Visual,1.045,0,0.973
Human,8,2,1,3,Visual,TOJ,Adaptive,Duration,0.33,Visual,0.7,Visual,1.03,1,0.621
Human,8,2,1,4,Visual,TOJ,Adaptive,Duration,0.315,Visual,0.7,Visual,1.015,1,0.821
Human,8,2,1,5,Visual,TOJ,Adaptive,Duration,0.36,Visual,0.7,Visual,1.06,1,0.593
Human,8,2,1,6,Visual,TOJ,Adaptive,Duration,0.345,Visual,0.7,Visual,1.045,1,0.967
Human,8,2,1,7,Visual,TOJ,Adaptive,Duration,0.39,Visual,0.7,Visual,1.09,1,0.583
Human,8,2,1,8,Visual,TOJ,Adaptive,Duration,0.435,Visual,0.7,Visual,1.135,0,0.58
Human,8,2,1,9,Visual,TOJ,Adaptive,Duration,0.42,Visual,0.7,Visual,1.12,1,0.83
Human,8,2,1,10,Visual,TOJ,Adaptive,Duration,0.405,Visual,0.7,Visual,1.105,1,0.978
Human,8,2,1,11,Visual,TOJ,Adaptive,Duration,0.39,Visual,0.7,Visual,1.09,1,0.801
Human,8,2,1,12,Visual,TOJ,Adaptive,Duration,0.375,Visual,0.7,Visual,1.075,1,0.534
Human,8,2,1,13,Visual,TOJ,Adaptive,Duration,0.36,Visual,0.7,Visual,1.06,1,0.713
Human,8,2,1,14,Visual,TOJ,Adaptive,Duration,0.405,Visual,0.7,Visual,1.105,1,0.54
