Species,Subj_idx,Session,Block,Trial,Stim,Procedure,Method,Parameter,SOA,Stim_Type_1,Stim_Dur_1,Stim_Type_2,Stim_Dur_2,Choice,Reaction_Time,First_Stim,Condition
Human,111,1,1,1,Auditory,TOJ,Adaptive,Duration,0.094,Auditory,0.5,Auditory,0.406,1,0.807,Low_Tone,1
Human,111,1,1,2,Auditory,TOJ,Adaptive,Duration,0.126,Auditory,0.5,Auditory,0.374,1,0.847,High_Tone,1
Human,111,1,1,3,Auditory,TOJ,Adaptive,Duration,0.126,Auditory,0.5,Auditory,0.374,1,2.29,Low_Tone,1
Human,111,1,1,4,Auditory,TOJ,Adaptive,Duration,0.126,Auditory,0.5,Auditory,0.374,1,0.291,High_Tone,1
Human,111,1,1,5,Auditory,TOJ,Adaptive,Duration,0.094,Auditory,0.5,Auditory,0.406,1,1.436,High_Tone,1
Human,111,1,1,6,Auditory,TOJ,Adaptive,Duration,0.158,Auditory,0.5,Auditory,0.342,1,1.323,High_Tone,1
Human,111,1,1,7,Auditory,TOJ,Adaptive,Duration,0.158,Auditory,0.5,Auditory,0.342,1,0.195,High_Tone,1
Human,111,1,1,8,Auditory,TOJ,Adaptive,Duration,0.158,Auditory,0.5,Auditory,0.342,1,1.01,High_Tone,1
Human,111,1,1,9,Auditory,TOJ,Adaptive,Duration,0.094,Auditory,0.5,Auditory,0.406,1,2.744,Low_Tone,1
Human,111,1,1,10,Auditory,TOJ,Adaptive,Duration,0.158,Auditory,0.5,Auditory,0.342,1,0.042,Low_Tone,1
Human,111,1,1,11,Auditory,TOJ,Adaptive,Duration,0.094,Auditory,0.5,Auditory,0.406,1,0.825,Low_Tone,1
Human,111,1,1,12,Auditory,TOJ,Adaptive,Duration,0.158,Auditory,0.5,Auditory,0.342,1,2.282,High_Tone,1
Human,111,1,1,13,Auditory,TOJ,Adaptive,Duration,0.158,Auditory,0.5,Auditory,0.342,1,1.144,Low_Tone,1
Human,111,1,1,14,Auditory,TOJ,Adaptive,Duration,0.126,Auditory,0.5,Auditory,0.374,1,1.621,High_Tone,1
Human,111,1,1,15,Auditory,TOJ,Adaptive,Duration,0.158,Auditory,0.5,Auditory,0.342,1,0.785,High_Tone,1
Human,111,1,1,16,Auditory,TOJ,Adaptive,Duration,0.158,Auditory,0.5,Auditory,0.342,1,0.035,Low_Tone,1
Human,111,1,1,17,Auditory,TOJ,Adaptive,Duration,0.158,Auditory,0.5,Auditory,0.342,1,1.429,Low_Tone,1
Human,111,1,1,18,Auditory,TOJ,Adaptive,Duration,0.094,Auditory,0.5,Auditory,0.406,1,1.149,High_Tone,1
Human,111,1,1,19,Auditory,TOJ,Adaptive,Duration,0.094,Auditory,0.5,Auditory,0.406,1,1.057,High_Tone,1
Human,111,1,1,20,Auditory,TOJ,Adaptive,Duration,0.094,Auditory,0.5,Auditory,0.406,1,0.079,High_Tone,1
Human,111,1,1,21,Auditory,TOJ,Adaptive,Duration,0.126,Auditory,0.5,Auditory,0.374,1,0.138,High_Tone,1
Human,111,1,1,22,Auditory,TOJ,Adaptive,Duration,0.094,Auditory,0.5,Auditory,0.406,2,0.852,Low_Tone,1
Human,111,1,1,23,Auditory,TOJ,Adaptive,Duration,0.126,Auditory,0.5,Auditory,0.374,1,0.779,Low_Tone,1
Human,111,1,1,24,Auditory,TOJ,Adaptive,Duration,0.126,Auditory,0.5,Auditory,0.374,1,0.117,Low_Tone,1
Human,111,1,1,25,Auditory,TOJ,Adaptive,Duration,0.158,Auditory,0.5,Auditory,0.342,1,0.005,High_Tone,1
Human,111,1,1,26,Auditory,TOJ,Adaptive,Duration,0.126,Auditory,0.5,Auditory,0.374,1,1.296,Low_Tone,1
Human,111,1,1,27,Auditory,TOJ,Adaptive,Duration,0.094,Auditory,0.5,Auditory,0.406,1,0.474,High_Tone,1
Human,111,1,1,28,Auditory,TOJ,Adaptive,Duration,0.126,Auditory,0.5,Auditory,0.374,1,0.567,Low_Tone,1
Human,111,1,1,29,Auditory,TOJ,Adaptive,Duration,0.094,Auditory,0.5,Auditory,0.406,2,0.29,High_Tone,1
Human,111,1,1,30,Auditory,TOJ,Adaptive,Duration,0.094,Auditory,0.5,Auditory,0.406,1,0.432,Low_Tone,1
Human,111,1,1,31,Auditory,TOJ,Adaptive,Duration,0.094,Auditory,0.5,Auditory,0.406,1,1.362,Low_Tone,1
Human,111,1,1,32,Auditory,TOJ,Adaptive,Duration,0.158,Auditory,0.5,Auditory,0.342,1,1.808,Low_Tone,1
Human,111,1,1,33,Auditory,TOJ,Adaptive,Duration,0.126,Auditory,0.5,Auditory,0.374,1,0.816,Low_Tone,1
Human,111,1,1,34,Auditory,TOJ,Adaptive,Duration,0.094,Auditory,0.5,Auditory,0.406,1,0.082,High_Tone,1
Human,111,1,1,35,Auditory,TOJ,Adaptive,Duration,0.158,Auditory,0.5,Auditory,0.342,1,0.239,Low_Tone,1
Human,111,1,1,36,Auditory,TOJ,Adaptive,Duration,0.126,Auditory,0.5,Auditory,0.374,1,0.252,Low_Tone,1
Human,111,1,1,37,Auditory,TOJ,Adaptive,Duration,0.126,Auditory,0.5,Auditory,0.374,1,0.668,High_Tone,1
Human,111,1,1,38,Auditory,TOJ,Adaptive,Duration,0.094,Auditory,0.5,Auditory,0.406,1,0.021,Low_Tone,1
Human,111,1,1,39,Auditory,TOJ,Adaptive,Duration,0.158,Auditory,0.5,Auditory,0.342,1,2.191,High_Tone,1
Human,111,1,1,40,Auditory,TOJ,Adaptive,Duration,0.158,Auditory,0.5,Auditory,0.342,2,0.936,Low_Tone,1
Human,111,1,1,41,Auditory,TOJ,Adaptive,Duration,0.126,Auditory,0.5,Auditory,0.374,1,0.087,High_Tone,1
Human,111,1,1,42,Auditory,TOJ,Adaptive,Duration,0.126,Auditory,0.5,Auditory,0.374,1,0.02,High_Tone,1
Human,111,1,1,43,Auditory,TOJ,Adaptive,Duration,0.158,Auditory,0.5,Auditory,0.342,1,6.004,High_Tone,2
Human,111,1,1,44,Auditory,TOJ,Adaptive,Duration,0.126,Auditory,0.5,Auditory,0.374,1,1.766,High_Tone,2
Human,111,1,1,45,Auditory,TOJ,Adaptive,Duration,0.126,Auditory,0.5,Auditory,0.374,2,0.002,Low_Tone,2
Human,111,1,1,46,Auditory,TOJ,Adaptive,Duration,0.094,Auditory,0.5,Auditory,0.406,1,2.162,High_Tone,2
Human,111,1,1,47,Auditory,TOJ,Adaptive,Duration,0.126,Auditory,0.5,Auditory,0.374,1,0.175,Low_Tone,2
Human,111,1,1,48,Auditory,TOJ,Adaptive,Duration,0.094,Auditory,0.5,Auditory,0.406,1,0.622,Low_Tone,2
Human,111,1,1,49,Auditory,TOJ,Adaptive,Duration,0.126,Auditory,0.5,Auditory,0.374,1,1.352,Low_Tone,2
Human,111,1,1,50,Auditory,TOJ,Adaptive,Duration,0.126,Auditory,0.5,Auditory,0.374,1,0.028,High_Tone,2
Human,111,1,1,51,Auditory,TOJ,Adaptive,Duration,0.158,Auditory,0.5,Auditory,0.342,1,1.674,High_Tone,2
Human,111,1,1,52,Auditory,TOJ,Adaptive,Duration,0.126,Auditory,0.5,Auditory,0.374,1,1.023,Low_Tone,2
Human,111,1,1,53,Auditory,TOJ,Adaptive,Duration,0.126,Auditory,0.5,Auditory,0.374,1,0.014,Low_Tone,2
Human,111,1,1,54,Auditory,TOJ,Adaptive,Duration,0.094,Auditory,0.5,Auditory,0.406,2,0.539,Low_Tone,2
Human,111,1,1,55,Auditory,TOJ,Adaptive,Duration,0.094,Auditory,0.5,Auditory,0.406,1,0.12,High_Tone,2
Human,111,1,1,56,Auditory,TOJ,Adaptive,Duration,0.158,Auditory,0.5,Auditory,0.342,1,0.451,High_Tone,2
Human,111,1,1,57,Auditory,TOJ,Adaptive,Duration,0.126,Auditory,0.5,Auditory,0.374,1,0.087,High_Tone,2
Human,111,1,1,58,Auditory,TOJ,Adaptive,Duration,0.094,Auditory,0.5,Auditory,0.406,1,0.065,High_Tone,2
Human,111,1,1,59,Auditory,TOJ,Adaptive,Duration,0.158,Auditory,0.5,Auditory,0.342,1,0.987,Low_Tone,2
Human,111,1,1,60,Auditory,TOJ,Adaptive,Duration,0.126,Auditory,0.5,Auditory,0.374,1,1.256,Low_Tone,2
Human,111,1,1,61,Auditory,TOJ,Adaptive,Duration,0.094,Auditory,0.5,Auditory,0.406,1,0.502,Low_Tone,2
Human,111,1,1,62,Auditory,TOJ,Adaptive,Duration,0.158,Auditory,0.5,Auditory,0.342,1,0.952,High_Tone,2
Human,111,1,1,63,Auditory,TOJ,Adaptive,Duration,0.158,Auditory,0.5,Auditory,0.342,1,0.226,Low_Tone,2
Human,111,1,1,64,Auditory,TOJ,Adaptive,Duration,0.158,Auditory,0.5,Auditory,0.342,1,0.319,High_Tone,2
Human,111,1,1,65,Auditory,TOJ,Adaptive,Duration,0.094,Auditory,0.5,Auditory,0.406,1,0.078,High_Tone,2
Human,111,1,1,66,Auditory,TOJ,Adaptive,Duration,0.158,Auditory,0.5,Auditory,0.342,1,0.074,Low_Tone,2
Human,111,1,1,67,Auditory,TOJ,Adaptive,Duration,0.094,Auditory,0.5,Auditory,0.406,1,0.093,Low_Tone,2
Human,111,1,1,68,Auditory,TOJ,Adaptive,Duration,0.126,Auditory,0.5,Auditory,0.374,1,1.523,High_Tone,2
Human,111,1,1,69,Auditory,TOJ,Adaptive,Duration,0.126,Auditory,0.5,Auditory,0.374,1,0.476,Low_Tone,2
Human,111,1,1,70,Auditory,TOJ,Adaptive,Duration,0.126,Auditory,0.5,Auditory,0.374,1,0.024,High_Tone,2
Human,111,1,1,71,Auditory,TOJ,Adaptive,Duration,0.094,Auditory,0.5,Auditory,0.406,1,0.216,Low_Tone,2
Human,111,1,1,72,Auditory,TOJ,Adaptive,Duration,0.126,Auditory,0.5,Auditory,0.374,1,0.327,High_Tone,2
Human,111,1,1,73,Auditory,TOJ,Adaptive,Duration,0.158,Auditory,0.5,Auditory,0.342,1,0.009,Low_Tone,2
Human,111,1,1,74,Auditory,TOJ,Adaptive,Duration,0.094,Auditory,0.5,Auditory,0.406,1,0.107,Low_Tone,2
Human,111,1,1,75,Auditory,TOJ,Adaptive,Duration,0.158,Auditory,0.5,Auditory,0.342,1,0.312,High_Tone,2
Human,111,1,1,76,Auditory,TOJ,Adaptive,Duration,0.094,Auditory,0.5,Auditory,0.406,2,0.522,High_Tone,2
Human,111,1,1,77,Auditory,TOJ,Adaptive,Duration,0.094,Auditory,0.5,Auditory,0.406,2,0.269,Low_Tone,2
Human,111,1,1,78,Auditory,TOJ,Adaptive,Duration,0.094,Auditory,0.5,Auditory,0.406,1,0.513,High_Tone,2
Human,111,1,1,79,Auditory,TOJ,Adaptive,Duration,0.158,Auditory,0.5,Auditory,0.342,1,0.423,Low_Tone,2
Human,111,1,1,80,Auditory,TOJ,Adaptive,Duration,0.158,Auditory,0.5,Auditory,0.342,1,0.515,High_Tone,2
Human,111,1,1,81,Auditory,TOJ,Adaptive,Duration,0.126,Auditory,0.5,Auditory,0.374,1,0.347,High_Tone,2
Human,111,1,1,82,Auditory,TOJ,Adaptive,Duration,0.094,Auditory,0.5,Auditory,0.406,1,0.064,High_Tone,2
Human,111,1,1,83,Auditory,TOJ,Adaptive,Duration,0.158,Auditory,0.5,Auditory,0.342,1,0.467,Low_Tone,2
Human,111,1,1,84,Auditory,TOJ,Adaptive,Duration,0.158,Auditory,0.5,Auditory,0.342,1,0.16,Low_Tone,2
Human,111,1,1,85,Auditory,TOJ,Adaptive,Duration,0.126,Auditory,0.5,Auditory,0.374,1,0.146,High_Tone,3
Human,111,1,1,86,Auditory,TOJ,Adaptive,Duration,0.126,Auditory,0.5,Auditory,0.374,1,0.125,Low_Tone,3
Human,111,1,1,87,Auditory,TOJ,Adaptive,Duration,0.126,Auditory,0.5,Auditory,0.374,1,0.92,Low_Tone,3
Human,111,1,1,88,Auditory,TOJ,Adaptive,Duration,0.126,Auditory,0.5,Auditory,0.374,1,0.988,Low_Tone,3
Human,111,1,1,89,Auditory,TOJ,Adaptive,Duration,0.094,Auditory,0.5,Auditory,0.406,1,0.569,Low_Tone,3
Human,111,1,1,90,Auditory,TOJ,Adaptive,Duration,0.126,Auditory,0.5,Auditory,0.374,1,0.421,Low_Tone,3
Human,111,1,1,91,Auditory,TOJ,Adaptive,Duration,0.126,Auditory,0.5,Auditory,0.374,1,0.98,High_Tone,3
Human,111,1,1,92,Auditory,TOJ,Adaptive,Duration,0.158,Auditory,0.5,Auditory,0.342,1,0.085,High_Tone,3
Human,111,1,1,93,Auditory,TOJ,Adaptive,Duration,0.158,Auditory,0.5,Auditory,0.342,1,0.502,High_Tone,3
Human,111,1,1,94,Auditory,TOJ,Adaptive,Duration,0.158,Auditory,0.5,Auditory,0.342,1,0.68,High_Tone,3
Human,111,1,1,95,Auditory,TOJ,Adaptive,Duration,0.094,Auditory,0.5,Auditory,0.406,1,0.801,Low_Tone,3
Human,111,1,1,96,Auditory,TOJ,Adaptive,Duration,0.094,Auditory,0.5,Auditory,0.406,1,0.34,High_Tone,3
Human,111,1,1,97,Auditory,TOJ,Adaptive,Duration,0.126,Auditory,0.5,Auditory,0.374,1,0.186,Low_Tone,3
Human,111,1,1,98,Auditory,TOJ,Adaptive,Duration,0.094,Auditory,0.5,Auditory,0.406,1,0.826,High_Tone,3
Human,111,1,1,99,Auditory,TOJ,Adaptive,Duration,0.094,Auditory,0.5,Auditory,0.406,2,0.645,Low_Tone,3
Human,111,1,1,100,Auditory,TOJ,Adaptive,Duration,0.094,Auditory,0.5,Auditory,0.406,1,0.472,Low_Tone,3
Human,111,1,1,101,Auditory,TOJ,Adaptive,Duration,0.094,Auditory,0.5,Auditory,0.406,1,0.485,High_Tone,3
Human,111,1,1,102,Auditory,TOJ,Adaptive,Duration,0.158,Auditory,0.5,Auditory,0.342,1,0.002,Low_Tone,3
Human,111,1,1,103,Auditory,TOJ,Adaptive,Duration,0.126,Auditory,0.5,Auditory,0.374,1,0.897,High_Tone,3
Human,111,1,1,104,Auditory,TOJ,Adaptive,Duration,0.158,Auditory,0.5,Auditory,0.342,1,0.624,Low_Tone,3
Human,111,1,1,105,Auditory,TOJ,Adaptive,Duration,0.158,Auditory,0.5,Auditory,0.342,1,0.345,Low_Tone,3
Human,111,1,1,106,Auditory,TOJ,Adaptive,Duration,0.158,Auditory,0.5,Auditory,0.342,1,0.814,High_Tone,3
Human,111,1,1,107,Auditory,TOJ,Adaptive,Duration,0.126,Auditory,0.5,Auditory,0.374,1,0.024,Low_Tone,3
Human,111,1,1,108,Auditory,TOJ,Adaptive,Duration,0.094,Auditory,0.5,Auditory,0.406,1,0.288,Low_Tone,3
Human,111,1,1,109,Auditory,TOJ,Adaptive,Duration,0.126,Auditory,0.5,Auditory,0.374,1,0.207,Low_Tone,3
Human,111,1,1,110,Auditory,TOJ,Adaptive,Duration,0.158,Auditory,0.5,Auditory,0.342,1,1.266,High_Tone,3
Human,111,1,1,111,Auditory,TOJ,Adaptive,Duration,0.094,Auditory,0.5,Auditory,0.406,1,0.367,High_Tone,3
Human,111,1,1,112,Auditory,TOJ,Adaptive,Duration,0.094,Auditory,0.5,Auditory,0.406,1,0.485,High_Tone,3
Human,111,1,1,113,Auditory,TOJ,Adaptive,Duration,0.094,Auditory,0.5,Auditory,0.406,2,1.081,Low_Tone,3
Human,111,1,1,114,Auditory,TOJ,Adaptive,Duration,0.158,Auditory,0.5,Auditory,0.342,1,0.346,High_Tone,3
Human,111,1,1,115,Auditory,TOJ,Adaptive,Duration,0.126,Auditory,0.5,Auditory,0.374,1,0.725,High_Tone,3
Human,111,1,1,116,Auditory,TOJ,Adaptive,Duration,0.158,Auditory,0.5,Auditory,0.342,1,0.541,High_Tone,3
Human,111,1,1,117,Auditory,TOJ,Adaptive,Duration,0.094,Auditory,0.5,Auditory,0.406,1,0.439,High_Tone,3
Human,111,1,1,118,Auditory,TOJ,Adaptive,Duration,0.126,Auditory,0.5,Auditory,0.374,1,0.759,High_Tone,3
Human,111,1,1,119,Auditory,TOJ,Adaptive,Duration,0.094,Auditory,0.5,Auditory,0.406,1,0.663,High_Tone,3
Human,111,1,1,120,Auditory,TOJ,Adaptive,Duration,0.126,Auditory,0.5,Auditory,0.374,1,0.509,High_Tone,3
Human,111,1,1,121,Auditory,TOJ,Adaptive,Duration,0.158,Auditory,0.5,Auditory,0.342,1,0.464,Low_Tone,3
Human,111,1,1,122,Auditory,TOJ,Adaptive,Duration,0.126,Auditory,0.5,Auditory,0.374,1,0.382,High_Tone,3
Human,111,1,1,123,Auditory,TOJ,Adaptive,Duration,0.094,Auditory,0.5,Auditory,0.406,1,0.266,Low_Tone,3
Human,111,1,1,124,Auditory,TOJ,Adaptive,Duration,0.158,Auditory,0.5,Auditory,0.342,1,0.828,Low_Tone,3
Human,111,1,1,125,Auditory,TOJ,Adaptive,Duration,0.158,Auditory,0.5,Auditory,0.342,1,0.525,Low_Tone,3
Human,111,1,1,126,Auditory,TOJ,Adaptive,Duration,0.158,Auditory,0.5,Auditory,0.342,1,0.073,Low_Tone,3
Human,111,1,1,127,Auditory,TOJ,Adaptive,Duration,0.126,Auditory,0.5,Auditory,0.374,1,1.255,High_Tone,3
Human,111,1,1,128,Auditory,TOJ,Adaptive,Duration,0.158,Auditory,0.5,Auditory,0.342,1,0.302,Low_Tone,3
Human,111,1,1,129,Auditory,TOJ,Adaptive,Duration,0.158,Auditory,0.5,Auditory,0.342,1,0.098,Low_Tone,3
Human,111,1,1,130,Auditory,TOJ,Adaptive,Duration,0.126,Auditory,0.5,Auditory,0.374,1,0.882,Low_Tone,3
Human,111,1,1,131,Auditory,TOJ,Adaptive,Duration,0.094,Auditory,0.5,Auditory,0.406,1,0.652,High_Tone,3
Human,111,1,1,132,Auditory,TOJ,Adaptive,Duration,0.094,Auditory,0.5,Auditory,0.406,1,0.417,Low_Tone,3
Human,111,1,1,133,Auditory,TOJ,Adaptive,Duration,0.094,Auditory,0.5,Auditory,0.406,1,1.052,High_Tone,3
Human,111,1,1,134,Auditory,TOJ,Adaptive,Duration,0.126,Auditory,0.5,Auditory,0.374,1,0.076,Low_Tone,3
Human,111,1,1,135,Auditory,TOJ,Adaptive,Duration,0.158,Auditory,0.5,Auditory,0.342,1,0.043,High_Tone,3
Human,111,1,1,136,Auditory,TOJ,Adaptive,Duration,0.094,Auditory,0.5,Auditory,0.406,1,0.494,Low_Tone,3
Human,111,1,1,137,Auditory,TOJ,Adaptive,Duration,0.126,Auditory,0.5,Auditory,0.374,2,0.153,Low_Tone,3
Human,111,1,1,138,Auditory,TOJ,Adaptive,Duration,0.158,Auditory,0.5,Auditory,0.342,1,0.17,High_Tone,3
Human,111,1,1,139,Auditory,TOJ,Adaptive,Duration,0.126,Auditory,0.5,Auditory,0.374,1,0.497,Low_Tone,3
Human,111,1,1,140,Auditory,TOJ,Adaptive,Duration,0.158,Auditory,0.5,Auditory,0.342,1,0.528,High_Tone,3
Human,111,1,1,141,Auditory,TOJ,Adaptive,Duration,0.126,Auditory,0.5,Auditory,0.374,1,0.464,High_Tone,3
Human,111,1,1,142,Auditory,TOJ,Adaptive,Duration,0.094,Auditory,0.5,Auditory,0.406,1,0.511,High_Tone,3
Human,111,1,1,143,Auditory,TOJ,Adaptive,Duration,0.126,Auditory,0.5,Auditory,0.374,1,1.722,High_Tone,3
Human,111,1,1,144,Auditory,TOJ,Adaptive,Duration,0.094,Auditory,0.5,Auditory,0.406,1,0.473,High_Tone,3
Human,111,1,1,145,Auditory,TOJ,Adaptive,Duration,0.094,Auditory,0.5,Auditory,0.406,2,0.478,High_Tone,3
Human,111,1,1,146,Auditory,TOJ,Adaptive,Duration,0.094,Auditory,0.5,Auditory,0.406,1,0.637,Low_Tone,3
Human,111,1,1,147,Auditory,TOJ,Adaptive,Duration,0.126,Auditory,0.5,Auditory,0.374,1,0.022,High_Tone,3
Human,111,1,1,148,Auditory,TOJ,Adaptive,Duration,0.094,Auditory,0.5,Auditory,0.406,1,0.483,High_Tone,3
Human,111,1,1,149,Auditory,TOJ,Adaptive,Duration,0.158,Auditory,0.5,Auditory,0.342,1,0.513,Low_Tone,3
Human,111,1,1,150,Auditory,TOJ,Adaptive,Duration,0.126,Auditory,0.5,Auditory,0.374,1,1.128,Low_Tone,3
Human,111,1,1,151,Auditory,TOJ,Adaptive,Duration,0.126,Auditory,0.5,Auditory,0.374,1,0.699,Low_Tone,3
Human,111,1,1,152,Auditory,TOJ,Adaptive,Duration,0.126,Auditory,0.5,Auditory,0.374,1,0.46,High_Tone,3
Human,111,1,1,153,Auditory,TOJ,Adaptive,Duration,0.158,Auditory,0.5,Auditory,0.342,1,0.028,High_Tone,3
Human,111,1,1,154,Auditory,TOJ,Adaptive,Duration,0.126,Auditory,0.5,Auditory,0.374,1,0.51,Low_Tone,3
Human,111,1,1,155,Auditory,TOJ,Adaptive,Duration,0.094,Auditory,0.5,Auditory,0.406,2,0.085,Low_Tone,3
Human,111,1,1,156,Auditory,TOJ,Adaptive,Duration,0.094,Auditory,0.5,Auditory,0.406,1,0.541,Low_Tone,3
Human,111,1,1,157,Auditory,TOJ,Adaptive,Duration,0.158,Auditory,0.5,Auditory,0.342,1,0.368,High_Tone,3
Human,111,1,1,158,Auditory,TOJ,Adaptive,Duration,0.158,Auditory,0.5,Auditory,0.342,1,0.379,Low_Tone,3
Human,111,1,1,159,Auditory,TOJ,Adaptive,Duration,0.158,Auditory,0.5,Auditory,0.342,1,1.997,High_Tone,3
Human,111,1,1,160,Auditory,TOJ,Adaptive,Duration,0.158,Auditory,0.5,Auditory,0.342,1,0.662,Low_Tone,3
Human,111,1,1,161,Auditory,TOJ,Adaptive,Duration,0.126,Auditory,0.5,Auditory,0.374,1,2.717,High_Tone,3
Human,111,1,1,162,Auditory,TOJ,Adaptive,Duration,0.158,Auditory,0.5,Auditory,0.342,1,0.556,Low_Tone,3
Human,111,1,1,163,Auditory,TOJ,Adaptive,Duration,0.094,Auditory,0.5,Auditory,0.406,1,0.031,Low_Tone,3
Human,111,1,1,164,Auditory,TOJ,Adaptive,Duration,0.126,Auditory,0.5,Auditory,0.374,1,0.116,High_Tone,3
Human,111,1,1,165,Auditory,TOJ,Adaptive,Duration,0.158,Auditory,0.5,Auditory,0.342,1,0.096,Low_Tone,3
Human,111,1,1,166,Auditory,TOJ,Adaptive,Duration,0.094,Auditory,0.5,Auditory,0.406,1,0.532,Low_Tone,3
Human,111,1,1,167,Auditory,TOJ,Adaptive,Duration,0.158,Auditory,0.5,Auditory,0.342,1,0.804,High_Tone,3
Human,111,1,1,168,Auditory,TOJ,Adaptive,Duration,0.094,Auditory,0.5,Auditory,0.406,1,0.446,High_Tone,3
Human,111,1,1,169,Auditory,TOJ,Adaptive,Duration,0.158,Auditory,0.5,Auditory,0.342,1,2.165,High_Tone,1
Human,111,1,1,170,Auditory,TOJ,Adaptive,Duration,0.126,Auditory,0.5,Auditory,0.374,1,0.75,High_Tone,1
Human,111,1,1,171,Auditory,TOJ,Adaptive,Duration,0.126,Auditory,0.5,Auditory,0.374,1,0.372,Low_Tone,1
Human,111,1,1,172,Auditory,TOJ,Adaptive,Duration,0.158,Auditory,0.5,Auditory,0.342,1,0.264,High_Tone,1
Human,111,1,1,173,Auditory,TOJ,Adaptive,Duration,0.094,Auditory,0.5,Auditory,0.406,1,0.302,High_Tone,1
Human,111,1,1,174,Auditory,TOJ,Adaptive,Duration,0.158,Auditory,0.5,Auditory,0.342,1,0.287,Low_Tone,1
Human,111,1,1,175,Auditory,TOJ,Adaptive,Duration,0.094,Auditory,0.5,Auditory,0.406,1,1.219,High_Tone,1
Human,111,1,1,176,Auditory,TOJ,Adaptive,Duration,0.158,Auditory,0.5,Auditory,0.342,1,0.391,Low_Tone,1
Human,111,1,1,177,Auditory,TOJ,Adaptive,Duration,0.158,Auditory,0.5,Auditory,0.342,1,0.441,High_Tone,1
Human,111,1,1,178,Auditory,TOJ,Adaptive,Duration,0.126,Auditory,0.5,Auditory,0.374,1,0.262,High_Tone,1
Human,111,1,1,179,Auditory,TOJ,Adaptive,Duration,0.094,Auditory,0.5,Auditory,0.406,2,0.41,Low_Tone,1
Human,111,1,1,180,Auditory,TOJ,Adaptive,Duration,0.094,Auditory,0.5,Auditory,0.406,2,3.232,Low_Tone,1
Human,111,1,1,181,Auditory,TOJ,Adaptive,Duration,0.126,Auditory,0.5,Auditory,0.374,1,1.046,Low_Tone,1
Human,111,1,1,182,Auditory,TOJ,Adaptive,Duration,0.158,Auditory,0.5,Auditory,0.342,1,0.777,High_Tone,1
Human,111,1,1,183,Auditory,TOJ,Adaptive,Duration,0.158,Auditory,0.5,Auditory,0.342,1,0.03,High_Tone,1
Human,111,1,1,184,Auditory,TOJ,Adaptive,Duration,0.126,Auditory,0.5,Auditory,0.374,1,0.306,High_Tone,1
Human,111,1,1,185,Auditory,TOJ,Adaptive,Duration,0.126,Auditory,0.5,Auditory,0.374,1,0.231,Low_Tone,1
Human,111,1,1,186,Auditory,TOJ,Adaptive,Duration,0.126,Auditory,0.5,Auditory,0.374,1,0.087,High_Tone,1
Human,111,1,1,187,Auditory,TOJ,Adaptive,Duration,0.094,Auditory,0.5,Auditory,0.406,1,0.296,Low_Tone,1
Human,111,1,1,188,Auditory,TOJ,Adaptive,Duration,0.094,Auditory,0.5,Auditory,0.406,1,0.501,Low_Tone,1
Human,111,1,1,189,Auditory,TOJ,Adaptive,Duration,0.158,Auditory,0.5,Auditory,0.342,1,0.521,Low_Tone,1
Human,111,1,1,190,Auditory,TOJ,Adaptive,Duration,0.126,Auditory,0.5,Auditory,0.374,1,0.473,Low_Tone,1
Human,111,1,1,191,Auditory,TOJ,Adaptive,Duration,0.126,Auditory,0.5,Auditory,0.374,1,0.351,High_Tone,1
Human,111,1,1,192,Auditory,TOJ,Adaptive,Duration,0.094,Auditory,0.5,Auditory,0.406,1,0.41,Low_Tone,1
Human,111,1,1,193,Auditory,TOJ,Adaptive,Duration,0.158,Auditory,0.5,Auditory,0.342,2,0.658,High_Tone,1
Human,111,1,1,194,Auditory,TOJ,Adaptive,Duration,0.158,Auditory,0.5,Auditory,0.342,1,0.424,Low_Tone,1
Human,111,1,1,195,Auditory,TOJ,Adaptive,Duration,0.126,Auditory,0.5,Auditory,0.374,1,0.19,Low_Tone,1
Human,111,1,1,196,Auditory,TOJ,Adaptive,Duration,0.158,Auditory,0.5,Auditory,0.342,1,0.322,Low_Tone,1
Human,111,1,1,197,Auditory,TOJ,Adaptive,Duration,0.094,Auditory,0.5,Auditory,0.406,1,0.393,High_Tone,1
Human,111,1,1,198,Auditory,TOJ,Adaptive,Duration,0.126,Auditory,0.5,Auditory,0.374,1,0.653,High_Tone,1
Human,111,1,1,199,Auditory,TOJ,Adaptive,Duration,0.094,Auditory,0.5,Auditory,0.406,1,0.464,High_Tone,1
Human,111,1,1,200,Auditory,TOJ,Adaptive,Duration,0.126,Auditory,0.5,Auditory,0.374,2,0.387,Low_Tone,1
Human,111,1,1,201,Auditory,TOJ,Adaptive,Duration,0.094,Auditory,0.5,Auditory,0.406,1,0.357,High_Tone,1
Human,111,1,1,202,Auditory,TOJ,Adaptive,Duration,0.094,Auditory,0.5,Auditory,0.406,1,0.349,Low_Tone,1
Human,111,1,1,203,Auditory,TOJ,Adaptive,Duration,0.126,Auditory,0.5,Auditory,0.374,1,0.256,Low_Tone,1
Human,111,1,1,204,Auditory,TOJ,Adaptive,Duration,0.094,Auditory,0.5,Auditory,0.406,1,0.477,High_Tone,1
Human,111,1,1,205,Auditory,TOJ,Adaptive,Duration,0.126,Auditory,0.5,Auditory,0.374,1,0.256,High_Tone,1
Human,111,1,1,206,Auditory,TOJ,Adaptive,Duration,0.158,Auditory,0.5,Auditory,0.342,1,0.325,High_Tone,1
Human,111,1,1,207,Auditory,TOJ,Adaptive,Duration,0.158,Auditory,0.5,Auditory,0.342,1,0.423,Low_Tone,1
Human,111,1,1,208,Auditory,TOJ,Adaptive,Duration,0.094,Auditory,0.5,Auditory,0.406,1,2.289,High_Tone,1
Human,111,1,1,209,Auditory,TOJ,Adaptive,Duration,0.094,Auditory,0.5,Auditory,0.406,1,1.34,Low_Tone,1
Human,111,1,1,210,Auditory,TOJ,Adaptive,Duration,0.158,Auditory,0.5,Auditory,0.342,1,0.281,Low_Tone,1
Human,111,1,1,211,Auditory,TOJ,Adaptive,Duration,0.094,Auditory,0.5,Auditory,0.406,1,0.596,High_Tone,2
Human,111,1,1,212,Auditory,TOJ,Adaptive,Duration,0.158,Auditory,0.5,Auditory,0.342,1,0.924,Low_Tone,2
Human,111,1,1,213,Auditory,TOJ,Adaptive,Duration,0.094,Auditory,0.5,Auditory,0.406,1,0.478,High_Tone,2
Human,111,1,1,214,Auditory,TOJ,Adaptive,Duration,0.126,Auditory,0.5,Auditory,0.374,1,0.495,High_Tone,2
Human,111,1,1,215,Auditory,TOJ,Adaptive,Duration,0.158,Auditory,0.5,Auditory,0.342,1,0.313,High_Tone,2
Human,111,1,1,216,Auditory,TOJ,Adaptive,Duration,0.158,Auditory,0.5,Auditory,0.342,1,1.839,Low_Tone,2
Human,111,1,1,217,Auditory,TOJ,Adaptive,Duration,0.158,Auditory,0.5,Auditory,0.342,1,0.144,High_Tone,2
Human,111,1,1,218,Auditory,TOJ,Adaptive,Duration,0.158,Auditory,0.5,Auditory,0.342,1,0.163,High_Tone,2
Human,111,1,1,219,Auditory,TOJ,Adaptive,Duration,0.158,Auditory,0.5,Auditory,0.342,1,0.083,High_Tone,2
Human,111,1,1,220,Auditory,TOJ,Adaptive,Duration,0.126,Auditory,0.5,Auditory,0.374,1,0.058,High_Tone,2
Human,111,1,1,221,Auditory,TOJ,Adaptive,Duration,0.094,Auditory,0.5,Auditory,0.406,1,0.65,Low_Tone,2
Human,111,1,1,222,Auditory,TOJ,Adaptive,Duration,0.094,Auditory,0.5,Auditory,0.406,1,0.277,Low_Tone,2
Human,111,1,1,223,Auditory,TOJ,Adaptive,Duration,0.094,Auditory,0.5,Auditory,0.406,1,0.268,Low_Tone,2
Human,111,1,1,224,Auditory,TOJ,Adaptive,Duration,0.126,Auditory,0.5,Auditory,0.374,1,0.516,Low_Tone,2
Human,111,1,1,225,Auditory,TOJ,Adaptive,Duration,0.158,Auditory,0.5,Auditory,0.342,1,0.281,High_Tone,2
Human,111,1,1,226,Auditory,TOJ,Adaptive,Duration,0.126,Auditory,0.5,Auditory,0.374,1,0.538,Low_Tone,2
Human,111,1,1,227,Auditory,TOJ,Adaptive,Duration,0.158,Auditory,0.5,Auditory,0.342,1,1.054,High_Tone,2
Human,111,1,1,228,Auditory,TOJ,Adaptive,Duration,0.126,Auditory,0.5,Auditory,0.374,2,2.482,Low_Tone,2
Human,111,1,1,229,Auditory,TOJ,Adaptive,Duration,0.094,Auditory,0.5,Auditory,0.406,1,0.227,High_Tone,2
Human,111,1,1,230,Auditory,TOJ,Adaptive,Duration,0.094,Auditory,0.5,Auditory,0.406,1,1.018,High_Tone,2
Human,111,1,1,231,Auditory,TOJ,Adaptive,Duration,0.126,Auditory,0.5,Auditory,0.374,1,0.242,Low_Tone,2
Human,111,1,1,232,Auditory,TOJ,Adaptive,Duration,0.094,Auditory,0.5,Auditory,0.406,1,0.04,Low_Tone,2
Human,111,1,1,233,Auditory,TOJ,Adaptive,Duration,0.158,Auditory,0.5,Auditory,0.342,1,0.576,Low_Tone,2
Human,111,1,1,234,Auditory,TOJ,Adaptive,Duration,0.158,Auditory,0.5,Auditory,0.342,1,0.32,Low_Tone,2
Human,111,1,1,235,Auditory,TOJ,Adaptive,Duration,0.158,Auditory,0.5,Auditory,0.342,1,0.16,High_Tone,2
Human,111,1,1,236,Auditory,TOJ,Adaptive,Duration,0.094,Auditory,0.5,Auditory,0.406,1,0.389,High_Tone,2
Human,111,1,1,237,Auditory,TOJ,Adaptive,Duration,0.126,Auditory,0.5,Auditory,0.374,1,0.268,High_Tone,2
Human,111,1,1,238,Auditory,TOJ,Adaptive,Duration,0.126,Auditory,0.5,Auditory,0.374,1,0.298,Low_Tone,2
Human,111,1,1,239,Auditory,TOJ,Adaptive,Duration,0.126,Auditory,0.5,Auditory,0.374,1,0.122,High_Tone,2
Human,111,1,1,240,Auditory,TOJ,Adaptive,Duration,0.126,Auditory,0.5,Auditory,0.374,1,0.276,Low_Tone,2
Human,111,1,1,241,Auditory,TOJ,Adaptive,Duration,0.094,Auditory,0.5,Auditory,0.406,1,0.124,High_Tone,2
Human,111,1,1,242,Auditory,TOJ,Adaptive,Duration,0.158,Auditory,0.5,Auditory,0.342,1,0.136,Low_Tone,2
Human,111,1,1,243,Auditory,TOJ,Adaptive,Duration,0.126,Auditory,0.5,Auditory,0.374,1,0.252,Low_Tone,2
Human,111,1,1,244,Auditory,TOJ,Adaptive,Duration,0.158,Auditory,0.5,Auditory,0.342,1,0.362,Low_Tone,2
Human,111,1,1,245,Auditory,TOJ,Adaptive,Duration,0.094,Auditory,0.5,Auditory,0.406,2,2.115,High_Tone,2
Human,111,1,1,246,Auditory,TOJ,Adaptive,Duration,0.094,Auditory,0.5,Auditory,0.406,1,0.287,Low_Tone,2
Human,111,1,1,247,Auditory,TOJ,Adaptive,Duration,0.094,Auditory,0.5,Auditory,0.406,1,0.317,Low_Tone,2
Human,111,1,1,248,Auditory,TOJ,Adaptive,Duration,0.126,Auditory,0.5,Auditory,0.374,1,0.29,High_Tone,2
Human,111,1,1,249,Auditory,TOJ,Adaptive,Duration,0.126,Auditory,0.5,Auditory,0.374,1,0.207,High_Tone,2
Human,111,1,1,250,Auditory,TOJ,Adaptive,Duration,0.126,Auditory,0.5,Auditory,0.374,1,0.176,High_Tone,2
Human,111,1,1,251,Auditory,TOJ,Adaptive,Duration,0.158,Auditory,0.5,Auditory,0.342,1,0.195,Low_Tone,2
Human,111,1,1,252,Auditory,TOJ,Adaptive,Duration,0.094,Auditory,0.5,Auditory,0.406,1,0.1,Low_Tone,2
Human,112,2,1,1,Auditory,TOJ,Adaptive,Duration,0.2,Auditory,0.5,Auditory,0.3,2,1.924,High_Tone,2
Human,112,2,1,2,Auditory,TOJ,Adaptive,Duration,0.198,Auditory,0.5,Auditory,0.302,1,0.036,High_Tone,2
Human,112,2,1,3,Auditory,TOJ,Adaptive,Duration,0.198,Auditory,0.5,Auditory,0.302,1,0.319,High_Tone,2
Human,112,2,1,4,Auditory,TOJ,Adaptive,Duration,0.198,Auditory,0.5,Auditory,0.302,1,0.303,High_Tone,2
Human,112,2,1,5,Auditory,TOJ,Adaptive,Duration,0.148,Auditory,0.5,Auditory,0.352,1,0.467,High_Tone,2
Human,112,2,1,6,Auditory,TOJ,Adaptive,Duration,0.198,Auditory,0.5,Auditory,0.302,1,0.277,Low_Tone,2
Human,112,2,1,7,Auditory,TOJ,Adaptive,Duration,0.2,Auditory,0.5,Auditory,0.3,1,0.544,Low_Tone,2
Human,112,2,1,8,Auditory,TOJ,Adaptive,Duration,0.148,Auditory,0.5,Auditory,0.352,2,0.282,Low_Tone,2
Human,112,2,1,9,Auditory,TOJ,Adaptive,Duration,0.2,Auditory,0.5,Auditory,0.3,1,0.097,High_Tone,2
Human,112,2,1,10,Auditory,TOJ,Adaptive,Duration,0.2,Auditory,0.5,Auditory,0.3,1,0.521,High_Tone,2
Human,112,2,1,11,Auditory,TOJ,Adaptive,Duration,0.148,Auditory,0.5,Auditory,0.352,1,0.028,Low_Tone,2
Human,112,2,1,12,Auditory,TOJ,Adaptive,Duration,0.198,Auditory,0.5,Auditory,0.302,1,0.385,High_Tone,2
Human,112,2,1,13,Auditory,TOJ,Adaptive,Duration,0.148,Auditory,0.5,Auditory,0.352,1,0.377,High_Tone,2
Human,112,2,1,14,Auditory,TOJ,Adaptive,Duration,0.2,Auditory,0.5,Auditory,0.3,1,0.043,Low_Tone,2
Human,112,2,1,15,Auditory,TOJ,Adaptive,Duration,0.148,Auditory,0.5,Auditory,0.352,2,0.234,Low_Tone,2
Human,112,2,1,16,Auditory,TOJ,Adaptive,Duration,0.2,Auditory,0.5,Auditory,0.3,1,0.223,High_Tone,2
Human,112,2,1,17,Auditory,TOJ,Adaptive,Duration,0.198,Auditory,0.5,Auditory,0.302,1,0.792,Low_Tone,2
Human,112,2,1,18,Auditory,TOJ,Adaptive,Duration,0.2,Auditory,0.5,Auditory,0.3,1,0.521,Low_Tone,2
Human,112,2,1,19,Auditory,TOJ,Adaptive,Duration,0.2,Auditory,0.5,Auditory,0.3,1,0.248,Low_Tone,2
Human,112,2,1,20,Auditory,TOJ,Adaptive,Duration,0.2,Auditory,0.5,Auditory,0.3,1,0.313,Low_Tone,2
Human,112,2,1,21,Auditory,TOJ,Adaptive,Duration,0.198,Auditory,0.5,Auditory,0.302,1,0.076,Low_Tone,2
Human,112,2,1,22,Auditory,TOJ,Adaptive,Duration,0.198,Auditory,0.5,Auditory,0.302,1,0.245,High_Tone,2
Human,112,2,1,23,Auditory,TOJ,Adaptive,Duration,0.2,Auditory,0.5,Auditory,0.3,1,1.116,Low_Tone,2
Human,112,2,1,24,Auditory,TOJ,Adaptive,Duration,0.148,Auditory,0.5,Auditory,0.352,1,0.271,Low_Tone,2
Human,112,2,1,25,Auditory,TOJ,Adaptive,Duration,0.148,Auditory,0.5,Auditory,0.352,1,0.261,High_Tone,2
Human,112,2,1,26,Auditory,TOJ,Adaptive,Duration,0.148,Auditory,0.5,Auditory,0.352,1,0.308,High_Tone,2
Human,112,2,1,27,Auditory,TOJ,Adaptive,Duration,0.148,Auditory,0.5,Auditory,0.352,1,0.251,High_Tone,2
Human,112,2,1,28,Auditory,TOJ,Adaptive,Duration,0.148,Auditory,0.5,Auditory,0.352,1,0.29,High_Tone,2
Human,112,2,1,29,Auditory,TOJ,Adaptive,Duration,0.198,Auditory,0.5,Auditory,0.302,2,0.238,Low_Tone,2
Human,112,2,1,30,Auditory,TOJ,Adaptive,Duration,0.2,Auditory,0.5,Auditory,0.3,1,0.259,High_Tone,2
Human,112,2,1,31,Auditory,TOJ,Adaptive,Duration,0.198,Auditory,0.5,Auditory,0.302,1,0.636,Low_Tone,2
Human,112,2,1,32,Auditory,TOJ,Adaptive,Duration,0.148,Auditory,0.5,Auditory,0.352,1,0.262,Low_Tone,2
Human,112,2,1,33,Auditory,TOJ,Adaptive,Duration,0.2,Auditory,0.5,Auditory,0.3,1,0.241,Low_Tone,2
Human,112,2,1,34,Auditory,TOJ,Adaptive,Duration,0.198,Auditory,0.5,Auditory,0.302,1,0.199,Low_Tone,2
Human,112,2,1,35,Auditory,TOJ,Adaptive,Duration,0.2,Auditory,0.5,Auditory,0.3,1,0.241,High_Tone,2
Human,112,2,1,36,Auditory,TOJ,Adaptive,Duration,0.198,Auditory,0.5,Auditory,0.302,1,0.445,Low_Tone,2
Human,112,2,1,37,Auditory,TOJ,Adaptive,Duration,0.148,Auditory,0.5,Auditory,0.352,1,0.417,Low_Tone,2
Human,112,2,1,38,Auditory,TOJ,Adaptive,Duration,0.2,Auditory,0.5,Auditory,0.3,1,0.171,High_Tone,2
Human,112,2,1,39,Auditory,TOJ,Adaptive,Duration,0.148,Auditory,0.5,Auditory,0.352,1,3.233,High_Tone,2
Human,112,2,1,40,Auditory,TOJ,Adaptive,Duration,0.148,Auditory,0.5,Auditory,0.352,1,0.374,Low_Tone,2
Human,112,2,1,41,Auditory,TOJ,Adaptive,Duration,0.198,Auditory,0.5,Auditory,0.302,1,1.559,High_Tone,2
Human,112,2,1,42,Auditory,TOJ,Adaptive,Duration,0.198,Auditory,0.5,Auditory,0.302,1,0.124,High_Tone,2
Human,112,2,1,43,Auditory,TOJ,Adaptive,Duration,0.2,Auditory,0.5,Auditory,0.3,1,0.293,Low_Tone,1
Human,112,2,1,44,Auditory,TOJ,Adaptive,Duration,0.148,Auditory,0.5,Auditory,0.352,1,0.282,High_Tone,1
Human,112,2,1,45,Auditory,TOJ,Adaptive,Duration,0.2,Auditory,0.5,Auditory,0.3,1,0.395,High_Tone,1
Human,112,2,1,46,Auditory,TOJ,Adaptive,Duration,0.148,Auditory,0.5,Auditory,0.352,1,0.023,Low_Tone,1
Human,112,2,1,47,Auditory,TOJ,Adaptive,Duration,0.198,Auditory,0.5,Auditory,0.302,1,0.448,High_Tone,1
Human,112,2,1,48,Auditory,TOJ,Adaptive,Duration,0.198,Auditory,0.5,Auditory,0.302,1,0.605,High_Tone,1
Human,112,2,1,49,Auditory,TOJ,Adaptive,Duration,0.198,Auditory,0.5,Auditory,0.302,2,0.001,High_Tone,1
Human,112,2,1,50,Auditory,TOJ,Adaptive,Duration,0.198,Auditory,0.5,Auditory,0.302,1,0.067,High_Tone,1
Human,112,2,1,51,Auditory,TOJ,Adaptive,Duration,0.148,Auditory,0.5,Auditory,0.352,1,0.019,High_Tone,1
Human,112,2,1,52,Auditory,TOJ,Adaptive,Duration,0.148,Auditory,0.5,Auditory,0.352,1,0.26,High_Tone,1
Human,112,2,1,53,Auditory,TOJ,Adaptive,Duration,0.198,Auditory,0.5,Auditory,0.302,1,0.107,Low_Tone,1
Human,112,2,1,54,Auditory,TOJ,Adaptive,Duration,0.2,Auditory,0.5,Auditory,0.3,1,0.239,High_Tone,1
Human,112,2,1,55,Auditory,TOJ,Adaptive,Duration,0.148,Auditory,0.5,Auditory,0.352,1,0.216,Low_Tone,1
Human,112,2,1,56,Auditory,TOJ,Adaptive,Duration,0.2,Auditory,0.5,Auditory,0.3,1,0.486,High_Tone,1
Human,112,2,1,57,Auditory,TOJ,Adaptive,Duration,0.148,Auditory,0.5,Auditory,0.352,1,0.506,High_Tone,1
Human,112,2,1,58,Auditory,TOJ,Adaptive,Duration,0.148,Auditory,0.5,Auditory,0.352,1,0.17,High_Tone,1
Human,112,2,1,59,Auditory,TOJ,Adaptive,Duration,0.198,Auditory,0.5,Auditory,0.302,1,0.092,Low_Tone,1
Human,112,2,1,60,Auditory,TOJ,Adaptive,Duration,0.2,Auditory,0.5,Auditory,0.3,1,0.299,Low_Tone,1
Human,112,2,1,61,Auditory,TOJ,Adaptive,Duration,0.2,Auditory,0.5,Auditory,0.3,1,0.024,Low_Tone,1
Human,112,2,1,62,Auditory,TOJ,Adaptive,Duration,0.2,Auditory,0.5,Auditory,0.3,1,0.555,Low_Tone,1
Human,112,2,1,63,Auditory,TOJ,Adaptive,Duration,0.2,Auditory,0.5,Auditory,0.3,1,0.221,Low_Tone,1
Human,112,2,1,64,Auditory,TOJ,Adaptive,Duration,0.148,Auditory,0.5,Auditory,0.352,1,0.274,Low_Tone,1
Human,112,2,1,65,Auditory,TOJ,Adaptive,Duration,0.148,Auditory,0.5,Auditory,0.352,1,0.264,High_Tone,1
Human,112,2,1,66,Auditory,TOJ,Adaptive,Duration,0.148,Auditory,0.5,Auditory,0.352,1,0.314,Low_Tone,1
Human,112,2,1,67,Auditory,TOJ,Adaptive,Duration,0.198,Auditory,0.5,Auditory,0.302,1,0.203,High_Tone,1
Human,112,2,1,68,Auditory,TOJ,Adaptive,Duration,0.2,Auditory,0.5,Auditory,0.3,1,0.054,High_Tone,1
Human,112,2,1,69,Auditory,TOJ,Adaptive,Duration,0.2,Auditory,0.5,Auditory,0.3,1,0.183,High_Tone,1
Human,112,2,1,70,Auditory,TOJ,Adaptive,Duration,0.2,Auditory,0.5,Auditory,0.3,1,0.582,Low_Tone,1
Human,112,2,1,71,Auditory,TOJ,Adaptive,Duration,0.148,Auditory,0.5,Auditory,0.352,1,0.438,Low_Tone,1
Human,112,2,1,72,Auditory,TOJ,Adaptive,Duration,0.2,Auditory,0.5,Auditory,0.3,1,0.289,High_Tone,1
Human,112,2,1,73,Auditory,TOJ,Adaptive,Duration,0.148,Auditory,0.5,Auditory,0.352,1,0.229,Low_Tone,1
Human,112,2,1,74,Auditory,TOJ,Adaptive,Duration,0.198,Auditory,0.5,Auditory,0.302,1,0.162,Low_Tone,1
Human,112,2,1,75,Auditory,TOJ,Adaptive,Duration,0.198,Auditory,0.5,Auditory,0.302,1,0.375,Low_Tone,1
Human,112,2,1,76,Auditory,TOJ,Adaptive,Duration,0.2,Auditory,0.5,Auditory,0.3,1,0.067,Low_Tone,1
Human,112,2,1,77,Auditory,TOJ,Adaptive,Duration,0.198,Auditory,0.5,Auditory,0.302,1,0.326,Low_Tone,1
Human,112,2,1,78,Auditory,TOJ,Adaptive,Duration,0.198,Auditory,0.5,Auditory,0.302,1,0.236,High_Tone,1
Human,112,2,1,79,Auditory,TOJ,Adaptive,Duration,0.148,Auditory,0.5,Auditory,0.352,1,0.249,High_Tone,1
Human,112,2,1,80,Auditory,TOJ,Adaptive,Duration,0.198,Auditory,0.5,Auditory,0.302,1,0.363,Low_Tone,1
Human,112,2,1,81,Auditory,TOJ,Adaptive,Duration,0.198,Auditory,0.5,Auditory,0.302,2,0.574,High_Tone,1
Human,112,2,1,82,Auditory,TOJ,Adaptive,Duration,0.198,Auditory,0.5,Auditory,0.302,1,0.389,Low_Tone,1
Human,112,2,1,83,Auditory,TOJ,Adaptive,Duration,0.148,Auditory,0.5,Auditory,0.352,1,0.157,Low_Tone,1
Human,112,2,1,84,Auditory,TOJ,Adaptive,Duration,0.2,Auditory,0.5,Auditory,0.3,1,0.503,High_Tone,1
Human,112,2,1,85,Auditory,TOJ,Adaptive,Duration,0.198,Auditory,0.5,Auditory,0.302,1,0.282,High_Tone,3
Human,112,2,1,86,Auditory,TOJ,Adaptive,Duration,0.148,Auditory,0.5,Auditory,0.352,1,0.511,Low_Tone,3
Human,112,2,1,87,Auditory,TOJ,Adaptive,Duration,0.198,Auditory,0.5,Auditory,0.302,1,0.774,High_Tone,3
Human,112,2,1,88,Auditory,TOJ,Adaptive,Duration,0.148,Auditory,0.5,Auditory,0.352,1,0.371,High_Tone,3
Human,112,2,1,89,Auditory,TOJ,Adaptive,Duration,0.2,Auditory,0.5,Auditory,0.3,2,0.364,Low_Tone,3
Human,112,2,1,90,Auditory,TOJ,Adaptive,Duration,0.198,Auditory,0.5,Auditory,0.302,2,0.615,Low_Tone,3
Human,112,2,1,91,Auditory,TOJ,Adaptive,Duration,0.148,Auditory,0.5,Auditory,0.352,1,0.167,High_Tone,3
Human,112,2,1,92,Auditory,TOJ,Adaptive,Duration,0.148,Auditory,0.5,Auditory,0.352,1,0.295,High_Tone,3
Human,112,2,1,93,Auditory,TOJ,Adaptive,Duration,0.2,Auditory,0.5,Auditory,0.3,1,0.014,High_Tone,3
Human,112,2,1,94,Auditory,TOJ,Adaptive,Duration,0.148,Auditory,0.5,Auditory,0.352,1,0.407,Low_Tone,3
Human,112,2,1,95,Auditory,TOJ,Adaptive,Duration,0.198,Auditory,0.5,Auditory,0.302,2,0.167,High_Tone,3
Human,112,2,1,96,Auditory,TOJ,Adaptive,Duration,0.198,Auditory,0.5,Auditory,0.302,1,0.334,High_Tone,3
Human,112,2,1,97,Auditory,TOJ,Adaptive,Duration,0.2,Auditory,0.5,Auditory,0.3,1,0.338,Low_Tone,3
Human,112,2,1,98,Auditory,TOJ,Adaptive,Duration,0.2,Auditory,0.5,Auditory,0.3,1,0.363,Low_Tone,3
Human,112,2,1,99,Auditory,TOJ,Adaptive,Duration,0.2,Auditory,0.5,Auditory,0.3,1,1.212,Low_Tone,3
Human,112,2,1,100,Auditory,TOJ,Adaptive,Duration,0.148,Auditory,0.5,Auditory,0.352,1,0.162,Low_Tone,3
Human,112,2,1,101,Auditory,TOJ,Adaptive,Duration,0.198,Auditory,0.5,Auditory,0.302,1,0.266,High_Tone,3
Human,112,2,1,102,Auditory,TOJ,Adaptive,Duration,0.198,Auditory,0.5,Auditory,0.302,1,0.038,Low_Tone,3
Human,112,2,1,103,Auditory,TOJ,Adaptive,Duration,0.198,Auditory,0.5,Auditory,0.302,1,0.263,High_Tone,3
Human,112,2,1,104,Auditory,TOJ,Adaptive,Duration,0.198,Auditory,0.5,Auditory,0.302,1,0.049,Low_Tone,3
Human,112,2,1,105,Auditory,TOJ,Adaptive,Duration,0.2,Auditory,0.5,Auditory,0.3,1,0.453,High_Tone,3
Human,112,2,1,106,Auditory,TOJ,Adaptive,Duration,0.198,Auditory,0.5,Auditory,0.302,1,0.029,Low_Tone,3
Human,112,2,1,107,Auditory,TOJ,Adaptive,Duration,0.198,Auditory,0.5,Auditory,0.302,1,0.211,High_Tone,3
Human,112,2,1,108,Auditory,TOJ,Adaptive,Duration,0.148,Auditory,0.5,Auditory,0.352,1,0.387,Low_Tone,3
Human,112,2,1,109,Auditory,TOJ,Adaptive,Duration,0.2,Auditory,0.5,Auditory,0.3,1,0.363,Low_Tone,3
Human,112,2,1,110,Auditory,TOJ,Adaptive,Duration,0.2,Auditory,0.5,Auditory,0.3,1,0.129,High_Tone,3
Human,112,2,1,111,Auditory,TOJ,Adaptive,Duration,0.148,Auditory,0.5,Auditory,0.352,1,0.162,Low_Tone,3
Human,112,2,1,112,Auditory,TOJ,Adaptive,Duration,0.198,Auditory,0.5,Auditory,0.302,1,0.316,Low_Tone,3
Human,112,2,1,113,Auditory,TOJ,Adaptive,Duration,0.148,Auditory,0.5,Auditory,0.352,1,0.62,High_Tone,3
Human,112,2,1,114,Auditory,TOJ,Adaptive,Duration,0.198,Auditory,0.5,Auditory,0.302,2,0.494,Low_Tone,3
Human,112,2,1,115,Auditory,TOJ,Adaptive,Duration,0.2,Auditory,0.5,Auditory,0.3,1,0.251,Low_Tone,3
Human,112,2,1,116,Auditory,TOJ,Adaptive,Duration,0.2,Auditory,0.5,Auditory,0.3,1,0.05,High_Tone,3
Human,112,2,1,117,Auditory,TOJ,Adaptive,Duration,0.2,Auditory,0.5,Auditory,0.3,1,0.221,High_Tone,3
Human,112,2,1,118,Auditory,TOJ,Adaptive,Duration,0.2,Auditory,0.5,Auditory,0.3,1,0.048,High_Tone,3
Human,112,2,1,119,Auditory,TOJ,Adaptive,Duration,0.148,Auditory,0.5,Auditory,0.352,1,0.474,High_Tone,3
Human,112,2,1,120,Auditory,TOJ,Adaptive,Duration,0.2,Auditory,0.5,Auditory,0.3,1,0.03,Low_Tone,3
Human,112,2,1,121,Auditory,TOJ,Adaptive,Duration,0.2,Auditory,0.5,Auditory,0.3,1,0.032,High_Tone,3
Human,112,2,1,122,Auditory,TOJ,Adaptive,Duration,0.148,Auditory,0.5,Auditory,0.352,1,0.135,High_Tone,3
Human,112,2,1,123,Auditory,TOJ,Adaptive,Duration,0.148,Auditory,0.5,Auditory,0.352,1,0.314,Low_Tone,3
Human,112,2,1,124,Auditory,TOJ,Adaptive,Duration,0.148,Auditory,0.5,Auditory,0.352,1,0.39,High_Tone,3
Human,112,2,1,125,Auditory,TOJ,Adaptive,Duration,0.148,Auditory,0.5,Auditory,0.352,1,0.135,Low_Tone,3
Human,112,2,1,126,Auditory,TOJ,Adaptive,Duration,0.198,Auditory,0.5,Auditory,0.302,1,0.132,Low_Tone,3
Human,112,2,1,127,Auditory,TOJ,Adaptive,Duration,0.198,Auditory,0.5,Auditory,0.302,1,0.589,High_Tone,2
Human,112,2,1,128,Auditory,TOJ,Adaptive,Duration,0.148,Auditory,0.5,Auditory,0.352,1,0.085,High_Tone,2
Human,112,2,1,129,Auditory,TOJ,Adaptive,Duration,0.148,Auditory,0.5,Auditory,0.352,1,0.109,High_Tone,2
Human,112,2,1,130,Auditory,TOJ,Adaptive,Duration,0.148,Auditory,0.5,Auditory,0.352,2,0.192,Low_Tone,2
Human,112,2,1,131,Auditory,TOJ,Adaptive,Duration,0.198,Auditory,0.5,Auditory,0.302,1,0.17,Low_Tone,2
Human,112,2,1,132,Auditory,TOJ,Adaptive,Duration,0.2,Auditory,0.5,Auditory,0.3,1,0.078,Low_Tone,2
Human,112,2,1,133,Auditory,TOJ,Adaptive,Duration,0.148,Auditory,0.5,Auditory,0.352,1,0.182,Low_Tone,2
Human,112,2,1,134,Auditory,TOJ,Adaptive,Duration,0.148,Auditory,0.5,Auditory,0.352,1,0.156,High_Tone,2
Human,112,2,1,135,Auditory,TOJ,Adaptive,Duration,0.148,Auditory,0.5,Auditory,0.352,1,0.274,Low_Tone,2
Human,112,2,1,136,Auditory,TOJ,Adaptive,Duration,0.2,Auditory,0.5,Auditory,0.3,1,0.409,Low_Tone,2
Human,112,2,1,137,Auditory,TOJ,Adaptive,Duration,0.2,Auditory,0.5,Auditory,0.3,1,0.058,High_Tone,2
Human,112,2,1,138,Auditory,TOJ,Adaptive,Duration,0.2,Auditory,0.5,Auditory,0.3,1,0.285,High_Tone,2
Human,112,2,1,139,Auditory,TOJ,Adaptive,Duration,0.2,Auditory,0.5,Auditory,0.3,2,0.54,Low_Tone,2
Human,112,2,1,140,Auditory,TOJ,Adaptive,Duration,0.198,Auditory,0.5,Auditory,0.302,1,0.27,High_Tone,2
Human,112,2,1,141,Auditory,TOJ,Adaptive,Duration,0.148,Auditory,0.5,Auditory,0.352,1,0.222,High_Tone,2
Human,112,2,1,142,Auditory,TOJ,Adaptive,Duration,0.198,Auditory,0.5,Auditory,0.302,1,0.089,Low_Tone,2
Human,112,2,1,143,Auditory,TOJ,Adaptive,Duration,0.2,Auditory,0.5,Auditory,0.3,1,0.256,Low_Tone,2
Human,112,2,1,144,Auditory,TOJ,Adaptive,Duration,0.2,Auditory,0.5,Auditory,0.3,1,0.423,Low_Tone,2
Human,112,2,1,145,Auditory,TOJ,Adaptive,Duration,0.198,Auditory,0.5,Auditory,0.302,1,0.018,High_Tone,2
Human,112,2,1,146,Auditory,TOJ,Adaptive,Duration,0.198,Auditory,0.5,Auditory,0.302,1,0.142,High_Tone,2
Human,112,2,1,147,Auditory,TOJ,Adaptive,Duration,0.198,Auditory,0.5,Auditory,0.302,1,0.559,Low_Tone,2
Human,112,2,1,148,Auditory,TOJ,Adaptive,Duration,0.148,Auditory,0.5,Auditory,0.352,1,0.004,Low_Tone,2
Human,112,2,1,149,Auditory,TOJ,Adaptive,Duration,0.148,Auditory,0.5,Auditory,0.352,1,0.147,Low_Tone,2
Human,112,2,1,150,Auditory,TOJ,Adaptive,Duration,0.198,Auditory,0.5,Auditory,0.302,2,0.847,High_Tone,2
Human,112,2,1,151,Auditory,TOJ,Adaptive,Duration,0.2,Auditory,0.5,Auditory,0.3,2,0.145,High_Tone,2
Human,112,2,1,152,Auditory,TOJ,Adaptive,Duration,0.148,Auditory,0.5,Auditory,0.352,1,0.356,High_Tone,2
Human,112,2,1,153,Auditory,TOJ,Adaptive,Duration,0.198,Auditory,0.5,Auditory,0.302,1,0.207,High_Tone,2
Human,112,2,1,154,Auditory,TOJ,Adaptive,Duration,0.198,Auditory,0.5,Auditory,0.302,1,0.039,High_Tone,2
Human,112,2,1,155,Auditory,TOJ,Adaptive,Duration,0.198,Auditory,0.5,Auditory,0.302,1,0.137,Low_Tone,2
Human,112,2,1,156,Auditory,TOJ,Adaptive,Duration,0.148,Auditory,0.5,Auditory,0.352,1,0.289,Low_Tone,2
Human,112,2,1,157,Auditory,TOJ,Adaptive,Duration,0.2,Auditory,0.5,Auditory,0.3,1,0.313,High_Tone,2
Human,112,2,1,158,Auditory,TOJ,Adaptive,Duration,0.2,Auditory,0.5,Auditory,0.3,1,0.279,Low_Tone,2
Human,112,2,1,159,Auditory,TOJ,Adaptive,Duration,0.2,Auditory,0.5,Auditory,0.3,1,0.44,High_Tone,2
Human,112,2,1,160,Auditory,TOJ,Adaptive,Duration,0.198,Auditory,0.5,Auditory,0.302,1,0.367,Low_Tone,2
Human,112,2,1,161,Auditory,TOJ,Adaptive,Duration,0.2,Auditory,0.5,Auditory,0.3,1,0.355,High_Tone,2
Human,112,2,1,162,Auditory,TOJ,Adaptive,Duration,0.198,Auditory,0.5,Auditory,0.302,1,0.365,Low_Tone,2
Human,112,2,1,163,Auditory,TOJ,Adaptive,Duration,0.2,Auditory,0.5,Auditory,0.3,1,0.275,High_Tone,2
Human,112,2,1,164,Auditory,TOJ,Adaptive,Duration,0.148,Auditory,0.5,Auditory,0.352,1,0.26,High_Tone,2
Human,112,2,1,165,Auditory,TOJ,Adaptive,Duration,0.198,Auditory,0.5,Auditory,0.302,1,0.218,Low_Tone,2
Human,112,2,1,166,Auditory,TOJ,Adaptive,Duration,0.148,Auditory,0.5,Auditory,0.352,1,0.274,High_Tone,2
Human,112,2,1,167,Auditory,TOJ,Adaptive,Duration,0.2,Auditory,0.5,Auditory,0.3,1,0.003,Low_Tone,2
Human,112,2,1,168,Auditory,TOJ,Adaptive,Duration,0.148,Auditory,0.5,Auditory,0.352,1,0.006,Low_Tone,2
Human,112,2,1,169,Auditory,TOJ,Adaptive,Duration,0.2,Auditory,0.5,Auditory,0.3,1,0.076,Low_Tone,3
Human,112,2,1,170,Auditory,TOJ,Adaptive,Duration,0.198,Auditory,0.5,Auditory,0.302,2,0.267,High_Tone,3
Human,112,2,1,171,Auditory,TOJ,Adaptive,Duration,0.2,Auditory,0.5,Auditory,0.3,1,0.435,Low_Tone,3
Human,112,2,1,172,Auditory,TOJ,Adaptive,Duration,0.2,Auditory,0.5,Auditory,0.3,1,0.068,High_Tone,3
Human,112,2,1,173,Auditory,TOJ,Adaptive,Duration,0.198,Auditory,0.5,Auditory,0.302,1,0.307,Low_Tone,3
Human,112,2,1,174,Auditory,TOJ,Adaptive,Duration,0.198,Auditory,0.5,Auditory,0.302,1,0.273,High_Tone,3
Human,112,2,1,175,Auditory,TOJ,Adaptive,Duration,0.198,Auditory,0.5,Auditory,0.302,1,0.161,High_Tone,3
Human,112,2,1,176,Auditory,TOJ,Adaptive,Duration,0.198,Auditory,0.5,Auditory,0.302,1,0.153,Low_Tone,3
Human,112,2,1,177,Auditory,TOJ,Adaptive,Duration,0.198,Auditory,0.5,Auditory,0.302,1,0.033,Low_Tone,3
Human,112,2,1,178,Auditory,TOJ,Adaptive,Duration,0.198,Auditory,0.5,Auditory,0.302,1,0.192,Low_Tone,3
Human,112,2,1,179,Auditory,TOJ,Adaptive,Duration,0.2,Auditory,0.5,Auditory,0.3,1,0.253,High_Tone,3
Human,112,2,1,180,Auditory,TOJ,Adaptive,Duration,0.148,Auditory,0.5,Auditory,0.352,1,0.124,High_Tone,3
Human,112,2,1,181,Auditory,TOJ,Adaptive,Duration,0.148,Auditory,0.5,Auditory,0.352,1,0.167,Low_Tone,3
Human,112,2,1,182,Auditory,TOJ,Adaptive,Duration,0.148,Auditory,0.5,Auditory,0.352,1,0.038,Low_Tone,3
Human,112,2,1,183,Auditory,TOJ,Adaptive,Duration,0.2,Auditory,0.5,Auditory,0.3,1,0.524,High_Tone,3
Human,112,2,1,184,Auditory,TOJ,Adaptive,Duration,0.2,Auditory,0.5,Auditory,0.3,1,0.233,Low_Tone,3
Human,112,2,1,185,Auditory,TOJ,Adaptive,Duration,0.148,Auditory,0.5,Auditory,0.352,1,0.14,High_Tone,3
Human,112,2,1,186,Auditory,TOJ,Adaptive,Duration,0.148,Auditory,0.5,Auditory,0.352,2,0.111,High_Tone,3
Human,112,2,1,187,Auditory,TOJ,Adaptive,Duration,0.2,Auditory,0.5,Auditory,0.3,1,0.116,Low_Tone,3
Human,112,2,1,188,Auditory,TOJ,Adaptive,Duration,0.148,Auditory,0.5,Auditory,0.352,1,0.102,High_Tone,3
Human,112,2,1,189,Auditory,TOJ,Adaptive,Duration,0.148,Auditory,0.5,Auditory,0.352,1,0.158,High_Tone,3
Human,112,2,1,190,Auditory,TOJ,Adaptive,Duration,0.198,Auditory,0.5,Auditory,0.302,2,0.038,High_Tone,3
Human,112,2,1,191,Auditory,TOJ,Adaptive,Duration,0.198,Auditory,0.5,Auditory,0.302,1,0.899,Low_Tone,3
Human,112,2,1,192,Auditory,TOJ,Adaptive,Duration,0.2,Auditory,0.5,Auditory,0.3,1,0.3,Low_Tone,3
Human,112,2,1,193,Auditory,TOJ,Adaptive,Duration,0.148,Auditory,0.5,Auditory,0.352,1,0.007,High_Tone,3
Human,112,2,1,194,Auditory,TOJ,Adaptive,Duration,0.148,Auditory,0.5,Auditory,0.352,1,0.333,Low_Tone,3
Human,112,2,1,195,Auditory,TOJ,Adaptive,Duration,0.148,Auditory,0.5,Auditory,0.352,1,0.235,Low_Tone,3
Human,112,2,1,196,Auditory,TOJ,Adaptive,Duration,0.148,Auditory,0.5,Auditory,0.352,1,0.022,Low_Tone,3
Human,112,2,1,197,Auditory,TOJ,Adaptive,Duration,0.2,Auditory,0.5,Auditory,0.3,1,0.107,Low_Tone,3
Human,112,2,1,198,Auditory,TOJ,Adaptive,Duration,0.198,Auditory,0.5,Auditory,0.302,2,0.178,Low_Tone,3
Human,112,2,1,199,Auditory,TOJ,Adaptive,Duration,0.148,Auditory,0.5,Auditory,0.352,1,0.362,High_Tone,3
Human,112,2,1,200,Auditory,TOJ,Adaptive,Duration,0.198,Auditory,0.5,Auditory,0.302,1,0.237,High_Tone,3
Human,112,2,1,201,Auditory,TOJ,Adaptive,Duration,0.198,Auditory,0.5,Auditory,0.302,1,0.641,High_Tone,3
Human,112,2,1,202,Auditory,TOJ,Adaptive,Duration,0.2,Auditory,0.5,Auditory,0.3,2,0.641,High_Tone,3
Human,112,2,1,203,Auditory,TOJ,Adaptive,Duration,0.148,Auditory,0.5,Auditory,0.352,2,0.495,Low_Tone,3
Human,112,2,1,204,Auditory,TOJ,Adaptive,Duration,0.198,Auditory,0.5,Auditory,0.302,1,0.093,High_Tone,3
Human,112,2,1,205,Auditory,TOJ,Adaptive,Duration,0.198,Auditory,0.5,Auditory,0.302,1,0.298,Low_Tone,3
Human,112,2,1,206,Auditory,TOJ,Adaptive,Duration,0.2,Auditory,0.5,Auditory,0.3,1,0.054,High_Tone,3
Human,112,2,1,207,Auditory,TOJ,Adaptive,Duration,0.148,Auditory,0.5,Auditory,0.352,1,0.066,Low_Tone,3
Human,112,2,1,208,Auditory,TOJ,Adaptive,Duration,0.2,Auditory,0.5,Auditory,0.3,1,0.177,Low_Tone,3
Human,112,2,1,209,Auditory,TOJ,Adaptive,Duration,0.2,Auditory,0.5,Auditory,0.3,1,0.118,High_Tone,3
Human,112,2,1,210,Auditory,TOJ,Adaptive,Duration,0.2,Auditory,0.5,Auditory,0.3,1,0.518,High_Tone,3
Human,112,2,1,211,Auditory,TOJ,Adaptive,Duration,0.198,Auditory,0.5,Auditory,0.302,2,0.039,High_Tone,1
Human,112,2,1,212,Auditory,TOJ,Adaptive,Duration,0.2,Auditory,0.5,Auditory,0.3,1,0.384,High_Tone,1
Human,112,2,1,213,Auditory,TOJ,Adaptive,Duration,0.2,Auditory,0.5,Auditory,0.3,1,0.167,High_Tone,1
Human,112,2,1,214,Auditory,TOJ,Adaptive,Duration,0.198,Auditory,0.5,Auditory,0.302,1,0.201,Low_Tone,1
Human,112,2,1,215,Auditory,TOJ,Adaptive,Duration,0.148,Auditory,0.5,Auditory,0.352,2,0.124,High_Tone,1
Human,112,2,1,216,Auditory,TOJ,Adaptive,Duration,0.198,Auditory,0.5,Auditory,0.302,1,0.452,High_Tone,1
Human,112,2,1,217,Auditory,TOJ,Adaptive,Duration,0.2,Auditory,0.5,Auditory,0.3,1,0.013,Low_Tone,1
Human,112,2,1,218,Auditory,TOJ,Adaptive,Duration,0.2,Auditory,0.5,Auditory,0.3,1,0.592,Low_Tone,1
Human,112,2,1,219,Auditory,TOJ,Adaptive,Duration,0.2,Auditory,0.5,Auditory,0.3,1,0.177,Low_Tone,1
Human,112,2,1,220,Auditory,TOJ,Adaptive,Duration,0.148,Auditory,0.5,Auditory,0.352,1,0.428,Low_Tone,1
Human,112,2,1,221,Auditory,TOJ,Adaptive,Duration,0.198,Auditory,0.5,Auditory,0.302,1,0.181,Low_Tone,1
Human,112,2,1,222,Auditory,TOJ,Adaptive,Duration,0.198,Auditory,0.5,Auditory,0.302,1,0.52,High_Tone,1
Human,112,2,1,223,Auditory,TOJ,Adaptive,Duration,0.148,Auditory,0.5,Auditory,0.352,2,0.676,Low_Tone,1
Human,112,2,1,224,Auditory,TOJ,Adaptive,Duration,0.198,Auditory,0.5,Auditory,0.302,1,0.282,High_Tone,1
Human,112,2,1,225,Auditory,TOJ,Adaptive,Duration,0.2,Auditory,0.5,Auditory,0.3,1,0.875,High_Tone,1
Human,112,2,1,226,Auditory,TOJ,Adaptive,Duration,0.2,Auditory,0.5,Auditory,0.3,2,0.289,Low_Tone,1
Human,112,2,1,227,Auditory,TOJ,Adaptive,Duration,0.2,Auditory,0.5,Auditory,0.3,2,0.051,High_Tone,1
Human,112,2,1,228,Auditory,TOJ,Adaptive,Duration,0.2,Auditory,0.5,Auditory,0.3,1,0.736,Low_Tone,1
Human,112,2,1,229,Auditory,TOJ,Adaptive,Duration,0.198,Auditory,0.5,Auditory,0.302,1,0.1,Low_Tone,1
Human,112,2,1,230,Auditory,TOJ,Adaptive,Duration,0.148,Auditory,0.5,Auditory,0.352,1,0.312,High_Tone,1
Human,112,2,1,231,Auditory,TOJ,Adaptive,Duration,0.198,Auditory,0.5,Auditory,0.302,1,0.084,Low_Tone,1
Human,112,2,1,232,Auditory,TOJ,Adaptive,Duration,0.148,Auditory,0.5,Auditory,0.352,2,0.44,High_Tone,1
Human,112,2,1,233,Auditory,TOJ,Adaptive,Duration,0.148,Auditory,0.5,Auditory,0.352,1,0.023,Low_Tone,1
Human,112,2,1,234,Auditory,TOJ,Adaptive,Duration,0.198,Auditory,0.5,Auditory,0.302,2,0.198,High_Tone,1
Human,112,2,1,235,Auditory,TOJ,Adaptive,Duration,0.2,Auditory,0.5,Auditory,0.3,1,0.547,Low_Tone,1
Human,112,2,1,236,Auditory,TOJ,Adaptive,Duration,0.198,Auditory,0.5,Auditory,0.302,2,0.077,High_Tone,1
Human,112,2,1,237,Auditory,TOJ,Adaptive,Duration,0.148,Auditory,0.5,Auditory,0.352,1,0.192,Low_Tone,1
Human,112,2,1,238,Auditory,TOJ,Adaptive,Duration,0.148,Auditory,0.5,Auditory,0.352,1,0.364,High_Tone,1
Human,112,2,1,239,Auditory,TOJ,Adaptive,Duration,0.2,Auditory,0.5,Auditory,0.3,1,0.643,High_Tone,1
Human,112,2,1,240,Auditory,TOJ,Adaptive,Duration,0.148,Auditory,0.5,Auditory,0.352,1,0.648,Low_Tone,1
Human,112,2,1,241,Auditory,TOJ,Adaptive,Duration,0.198,Auditory,0.5,Auditory,0.302,2,0.625,Low_Tone,1
Human,112,2,1,242,Auditory,TOJ,Adaptive,Duration,0.198,Auditory,0.5,Auditory,0.302,1,0.231,Low_Tone,1
Human,112,2,1,243,Auditory,TOJ,Adaptive,Duration,0.148,Auditory,0.5,Auditory,0.352,1,0.373,Low_Tone,1
Human,112,2,1,244,Auditory,TOJ,Adaptive,Duration,0.148,Auditory,0.5,Auditory,0.352,2,0.541,High_Tone,1
Human,112,2,1,245,Auditory,TOJ,Adaptive,Duration,0.198,Auditory,0.5,Auditory,0.302,1,0.136,High_Tone,1
Human,112,2,1,246,Auditory,TOJ,Adaptive,Duration,0.198,Auditory,0.5,Auditory,0.302,1,0.203,Low_Tone,1
Human,112,2,1,247,Auditory,TOJ,Adaptive,Duration,0.148,Auditory,0.5,Auditory,0.352,2,0.094,High_Tone,1
Human,112,2,1,248,Auditory,TOJ,Adaptive,Duration,0.148,Auditory,0.5,Auditory,0.352,1,0.25,High_Tone,1
Human,112,2,1,249,Auditory,TOJ,Adaptive,Duration,0.2,Auditory,0.5,Auditory,0.3,1,0.234,High_Tone,1
Human,112,2,1,250,Auditory,TOJ,Adaptive,Duration,0.2,Auditory,0.5,Auditory,0.3,1,0.029,Low_Tone,1
Human,112,2,1,251,Auditory,TOJ,Adaptive,Duration,0.148,Auditory,0.5,Auditory,0.352,1,0.034,Low_Tone,1
Human,112,2,1,252,Auditory,TOJ,Adaptive,Duration,0.2,Auditory,0.5,Auditory,0.3,1,0.366,High_Tone,1
Human,113,3,1,1,Auditory,TOJ,Adaptive,Duration,0.026,Auditory,0.5,Auditory,0.474,1,0.168,High_Tone,3
Human,113,3,1,2,Auditory,TOJ,Adaptive,Duration,0.02,Auditory,0.5,Auditory,0.48,1,0.424,High_Tone,3
Human,113,3,1,3,Auditory,TOJ,Adaptive,Duration,0.026,Auditory,0.5,Auditory,0.474,1,0.233,High_Tone,3
Human,113,3,1,4,Auditory,TOJ,Adaptive,Duration,0.032,Auditory,0.5,Auditory,0.468,1,0.175,Low_Tone,3
Human,113,3,1,5,Auditory,TOJ,Adaptive,Duration,0.032,Auditory,0.5,Auditory,0.468,1,0.266,Low_Tone,3
Human,113,3,1,6,Auditory,TOJ,Adaptive,Duration,0.032,Auditory,0.5,Auditory,0.468,1,0.297,High_Tone,3
Human,113,3,1,7,Auditory,TOJ,Adaptive,Duration,0.032,Auditory,0.5,Auditory,0.468,1,0.18,Low_Tone,3
Human,113,3,1,8,Auditory,TOJ,Adaptive,Duration,0.02,Auditory,0.5,Auditory,0.48,1,0.102,High_Tone,3
Human,113,3,1,9,Auditory,TOJ,Adaptive,Duration,0.026,Auditory,0.5,Auditory,0.474,1,0.114,High_Tone,3
Human,113,3,1,10,Auditory,TOJ,Adaptive,Duration,0.026,Auditory,0.5,Auditory,0.474,1,0.233,Low_Tone,3
Human,113,3,1,11,Auditory,TOJ,Adaptive,Duration,0.032,Auditory,0.5,Auditory,0.468,1,0.064,Low_Tone,3
Human,113,3,1,12,Auditory,TOJ,Adaptive,Duration,0.026,Auditory,0.5,Auditory,0.474,1,0.086,Low_Tone,3
Human,113,3,1,13,Auditory,TOJ,Adaptive,Duration,0.032,Auditory,0.5,Auditory,0.468,1,0.07,Low_Tone,3
Human,113,3,1,14,Auditory,TOJ,Adaptive,Duration,0.032,Auditory,0.5,Auditory,0.468,1,0.171,High_Tone,3
Human,113,3,1,15,Auditory,TOJ,Adaptive,Duration,0.02,Auditory,0.5,Auditory,0.48,1,0.317,High_Tone,3
Human,113,3,1,16,Auditory,TOJ,Adaptive,Duration,0.026,Auditory,0.5,Auditory,0.474,1,0.075,Low_Tone,3
Human,113,3,1,17,Auditory,TOJ,Adaptive,Duration,0.026,Auditory,0.5,Auditory,0.474,1,0.056,High_Tone,3
Human,113,3,1,18,Auditory,TOJ,Adaptive,Duration,0.026,Auditory,0.5,Auditory,0.474,1,0.026,High_Tone,3
Human,113,3,1,19,Auditory,TOJ,Adaptive,Duration,0.02,Auditory,0.5,Auditory,0.48,1,1.026,High_Tone,3
Human,113,3,1,20,Auditory,TOJ,Adaptive,Duration,0.032,Auditory,0.5,Auditory,0.468,1,0.072,High_Tone,3
Human,113,3,1,21,Auditory,TOJ,Adaptive,Duration,0.02,Auditory,0.5,Auditory,0.48,1,0.265,Low_Tone,3
Human,113,3,1,22,Auditory,TOJ,Adaptive,Duration,0.032,Auditory,0.5,Auditory,0.468,1,0.099,Low_Tone,3
Human,113,3,1,23,Auditory,TOJ,Adaptive,Duration,0.02,Auditory,0.5,Auditory,0.48,1,0.183,Low_Tone,3
Human,113,3,1,24,Auditory,TOJ,Adaptive,Duration,0.032,Auditory,0.5,Auditory,0.468,1,0.719,High_Tone,3
Human,113,3,1,25,Auditory,TOJ,Adaptive,Duration,0.02,Auditory,0.5,Auditory,0.48,1,0.13,Low_Tone,3
Human,113,3,1,26,Auditory,TOJ,Adaptive,Duration,0.02,Auditory,0.5,Auditory,0.48,2,0.206,Low_Tone,3
Human,113,3,1,27,Auditory,TOJ,Adaptive,Duration,0.032,Auditory,0.5,Auditory,0.468,2,0.632,High_Tone,3
Human,113,3,1,28,Auditory,TOJ,Adaptive,Duration,0.026,Auditory,0.5,Auditory,0.474,2,0.486,Low_Tone,3
Human,113,3,1,29,Auditory,TOJ,Adaptive,Duration,0.026,Auditory,0.5,Auditory,0.474,1,0.094,Low_Tone,3
Human,113,3,1,30,Auditory,TOJ,Adaptive,Duration,0.02,Auditory,0.5,Auditory,0.48,2,0.434,High_Tone,3
Human,113,3,1,31,Auditory,TOJ,Adaptive,Duration,0.02,Auditory,0.5,Auditory,0.48,1,0.343,Low_Tone,3
Human,113,3,1,32,Auditory,TOJ,Adaptive,Duration,0.02,Auditory,0.5,Auditory,0.48,1,0.479,Low_Tone,3
Human,113,3,1,33,Auditory,TOJ,Adaptive,Duration,0.026,Auditory,0.5,Auditory,0.474,1,0.066,High_Tone,3
Human,113,3,1,34,Auditory,TOJ,Adaptive,Duration,0.026,Auditory,0.5,Auditory,0.474,2,0.135,High_Tone,3
Human,113,3,1,35,Auditory,TOJ,Adaptive,Duration,0.032,Auditory,0.5,Auditory,0.468,1,0.008,Low_Tone,3
Human,113,3,1,36,Auditory,TOJ,Adaptive,Duration,0.032,Auditory,0.5,Auditory,0.468,1,0.113,High_Tone,3
Human,113,3,1,37,Auditory,TOJ,Adaptive,Duration,0.026,Auditory,0.5,Auditory,0.474,2,0.458,Low_Tone,3
Human,113,3,1,38,Auditory,TOJ,Adaptive,Duration,0.02,Auditory,0.5,Auditory,0.48,2,0.271,High_Tone,3
Human,113,3,1,39,Auditory,TOJ,Adaptive,Duration,0.032,Auditory,0.5,Auditory,0.468,1,0.599,High_Tone,3
Human,113,3,1,40,Auditory,TOJ,Adaptive,Duration,0.02,Auditory,0.5,Auditory,0.48,2,0.09,Low_Tone,3
Human,113,3,1,41,Auditory,TOJ,Adaptive,Duration,0.026,Auditory,0.5,Auditory,0.474,1,0.083,Low_Tone,3
Human,113,3,1,42,Auditory,TOJ,Adaptive,Duration,0.02,Auditory,0.5,Auditory,0.48,2,0.934,High_Tone,3
Human,113,3,1,43,Auditory,TOJ,Adaptive,Duration,0.026,Auditory,0.5,Auditory,0.474,2,0.637,High_Tone,2
Human,113,3,1,44,Auditory,TOJ,Adaptive,Duration,0.02,Auditory,0.5,Auditory,0.48,1,0.558,High_Tone,2
Human,113,3,1,45,Auditory,TOJ,Adaptive,Duration,0.026,Auditory,0.5,Auditory,0.474,2,1.742,High_Tone,2
Human,113,3,1,46,Auditory,TOJ,Adaptive,Duration,0.02,Auditory,0.5,Auditory,0.48,1,1.097,Low_Tone,2
Human,113,3,1,47,Auditory,TOJ,Adaptive,Duration,0.032,Auditory,0.5,Auditory,0.468,1,0.987,Low_Tone,2
Human,113,3,1,48,Auditory,TOJ,Adaptive,Duration,0.032,Auditory,0.5,Auditory,0.468,2,0.639,High_Tone,2
Human,113,3,1,49,Auditory,TOJ,Adaptive,Duration,0.032,Auditory,0.5,Auditory,0.468,1,0.249,Low_Tone,2
Human,113,3,1,50,Auditory,TOJ,Adaptive,Duration,0.02,Auditory,0.5,Auditory,0.48,1,0.425,High_Tone,2
Human,113,3,1,51,Auditory,TOJ,Adaptive,Duration,0.026,Auditory,0.5,Auditory,0.474,2,0.085,High_Tone,2
Human,113,3,1,52,Auditory,TOJ,Adaptive,Duration,0.032,Auditory,0.5,Auditory,0.468,2,0.593,High_Tone,2
Human,113,3,1,53,Auditory,TOJ,Adaptive,Duration,0.02,Auditory,0.5,Auditory,0.48,1,0.36,Low_Tone,2
Human,113,3,1,54,Auditory,TOJ,Adaptive,Duration,0.026,Auditory,0.5,Auditory,0.474,1,0.39,Low_Tone,2
Human,113,3,1,55,Auditory,TOJ,Adaptive,Duration,0.02,Auditory,0.5,Auditory,0.48,1,0.12,Low_Tone,2
Human,113,3,1,56,Auditory,TOJ,Adaptive,Duration,0.02,Auditory,0.5,Auditory,0.48,1,0.033,Low_Tone,2
Human,113,3,1,57,Auditory,TOJ,Adaptive,Duration,0.026,Auditory,0.5,Auditory,0.474,2,0.364,High_Tone,2
Human,113,3,1,58,Auditory,TOJ,Adaptive,Duration,0.026,Auditory,0.5,Auditory,0.474,1,0.538,Low_Tone,2
Human,113,3,1,59,Auditory,TOJ,Adaptive,Duration,0.026,Auditory,0.5,Auditory,0.474,1,0.518,Low_Tone,2
Human,113,3,1,60,Auditory,TOJ,Adaptive,Duration,0.02,Auditory,0.5,Auditory,0.48,1,0.165,Low_Tone,2
Human,113,3,1,61,Auditory,TOJ,Adaptive,Duration,0.02,Auditory,0.5,Auditory,0.48,2,1.181,Low_Tone,2
Human,113,3,1,62,Auditory,TOJ,Adaptive,Duration,0.02,Auditory,0.5,Auditory,0.48,1,0.334,High_Tone,2
Human,113,3,1,63,Auditory,TOJ,Adaptive,Duration,0.026,Auditory,0.5,Auditory,0.474,2,1.24,High_Tone,2
Human,113,3,1,64,Auditory,TOJ,Adaptive,Duration,0.02,Auditory,0.5,Auditory,0.48,1,0.028,High_Tone,2
Human,113,3,1,65,Auditory,TOJ,Adaptive,Duration,0.032,Auditory,0.5,Auditory,0.468,1,0.033,High_Tone,2
Human,113,3,1,66,Auditory,TOJ,Adaptive,Duration,0.026,Auditory,0.5,Auditory,0.474,1,0.045,High_Tone,2
Human,113,3,1,67,Auditory,TOJ,Adaptive,Duration,0.032,Auditory,0.5,Auditory,0.468,1,0.022,Low_Tone,2
Human,113,3,1,68,Auditory,TOJ,Adaptive,Duration,0.026,Auditory,0.5,Auditory,0.474,1,0.507,Low_Tone,2
Human,113,3,1,69,Auditory,TOJ,Adaptive,Duration,0.032,Auditory,0.5,Auditory,0.468,1,0.089,High_Tone,2
Human,113,3,1,70,Auditory,TOJ,Adaptive,Duration,0.026,Auditory,0.5,Auditory,0.474,1,1.396,Low_Tone,2
Human,113,3,1,71,Auditory,TOJ,Adaptive,Duration,0.026,Auditory,0.5,Auditory,0.474,1,0.043,Low_Tone,2
Human,113,3,1,72,Auditory,TOJ,Adaptive,Duration,0.032,Auditory,0.5,Auditory,0.468,1,0.347,Low_Tone,2
Human,113,3,1,73,Auditory,TOJ,Adaptive,Duration,0.02,Auditory,0.5,Auditory,0.48,2,0.086,High_Tone,2
Human,113,3,1,74,Auditory,TOJ,Adaptive,Duration,0.02,Auditory,0.5,Auditory,0.48,1,0.037,High_Tone,2
Human,113,3,1,75,Auditory,TOJ,Adaptive,Duration,0.032,Auditory,0.5,Auditory,0.468,1,1.063,High_Tone,2
Human,113,3,1,76,Auditory,TOJ,Adaptive,Duration,0.02,Auditory,0.5,Auditory,0.48,2,0.725,High_Tone,2
Human,113,3,1,77,Auditory,TOJ,Adaptive,Duration,0.026,Auditory,0.5,Auditory,0.474,1,0.074,High_Tone,2
Human,113,3,1,78,Auditory,TOJ,Adaptive,Duration,0.032,Auditory,0.5,Auditory,0.468,1,0.149,High_Tone,2
Human,113,3,1,79,Auditory,TOJ,Adaptive,Duration,0.032,Auditory,0.5,Auditory,0.468,2,0.501,High_Tone,2
Human,113,3,1,80,Auditory,TOJ,Adaptive,Duration,0.032,Auditory,0.5,Auditory,0.468,1,0.072,Low_Tone,2
Human,113,3,1,81,Auditory,TOJ,Adaptive,Duration,0.032,Auditory,0.5,Auditory,0.468,1,0.073,Low_Tone,2
Human,113,3,1,82,Auditory,TOJ,Adaptive,Duration,0.02,Auditory,0.5,Auditory,0.48,1,0.313,Low_Tone,2
Human,113,3,1,83,Auditory,TOJ,Adaptive,Duration,0.032,Auditory,0.5,Auditory,0.468,1,0.342,Low_Tone,2
Human,113,3,1,84,Auditory,TOJ,Adaptive,Duration,0.026,Auditory,0.5,Auditory,0.474,1,0.657,Low_Tone,2
Human,113,3,1,85,Auditory,TOJ,Adaptive,Duration,0.02,Auditory,0.5,Auditory,0.48,1,0.074,Low_Tone,1
Human,113,3,1,86,Auditory,TOJ,Adaptive,Duration,0.026,Auditory,0.5,Auditory,0.474,1,0.213,High_Tone,1
Human,113,3,1,87,Auditory,TOJ,Adaptive,Duration,0.026,Auditory,0.5,Auditory,0.474,1,0.303,Low_Tone,1
Human,113,3,1,88,Auditory,TOJ,Adaptive,Duration,0.026,Auditory,0.5,Auditory,0.474,1,0.038,High_Tone,1
Human,113,3,1,89,Auditory,TOJ,Adaptive,Duration,0.026,Auditory,0.5,Auditory,0.474,1,0.342,Low_Tone,1
Human,113,3,1,90,Auditory,TOJ,Adaptive,Duration,0.032,Auditory,0.5,Auditory,0.468,2,0.367,High_Tone,1
Human,113,3,1,91,Auditory,TOJ,Adaptive,Duration,0.02,Auditory,0.5,Auditory,0.48,2,0.243,High_Tone,1
Human,113,3,1,92,Auditory,TOJ,Adaptive,Duration,0.032,Auditory,0.5,Auditory,0.468,2,1.367,High_Tone,1
Human,113,3,1,93,Auditory,TOJ,Adaptive,Duration,0.032,Auditory,0.5,Auditory,0.468,1,0.235,High_Tone,1
Human,113,3,1,94,Auditory,TOJ,Adaptive,Duration,0.032,Auditory,0.5,Auditory,0.468,1,0.376,High_Tone,1
Human,113,3,1,95,Auditory,TOJ,Adaptive,Duration,0.02,Auditory,0.5,Auditory,0.48,2,0.179,Low_Tone,1
Human,113,3,1,96,Auditory,TOJ,Adaptive,Duration,0.032,Auditory,0.5,Auditory,0.468,1,0.083,High_Tone,1
Human,113,3,1,97,Auditory,TOJ,Adaptive,Duration,0.032,Auditory,0.5,Auditory,0.468,1,0.037,Low_Tone,1
Human,113,3,1,98,Auditory,TOJ,Adaptive,Duration,0.02,Auditory,0.5,Auditory,0.48,1,0.148,High_Tone,1
Human,113,3,1,99,Auditory,TOJ,Adaptive,Duration,0.02,Auditory,0.5,Auditory,0.48,1,0.114,Low_Tone,1
Human,113,3,1,100,Auditory,TOJ,Adaptive,Duration,0.02,Auditory,0.5,Auditory,0.48,2,0.065,Low_Tone,1
Human,113,3,1,101,Auditory,TOJ,Adaptive,Duration,0.032,Auditory,0.5,Auditory,0.468,1,0.159,Low_Tone,1
Human,113,3,1,102,Auditory,TOJ,Adaptive,Duration,0.032,Auditory,0.5,Auditory,0.468,1,0.05,Low_Tone,1
Human,113,3,1,103,Auditory,TOJ,Adaptive,Duration,0.02,Auditory,0.5,Auditory,0.48,2,1.176,High_Tone,1
Human,113,3,1,104,Auditory,TOJ,Adaptive,Duration,0.032,Auditory,0.5,Auditory,0.468,1,0.105,Low_Tone,1
Human,113,3,1,105,Auditory,TOJ,Adaptive,Duration,0.02,Auditory,0.5,Auditory,0.48,1,0.387,Low_Tone,1
Human,113,3,1,106,Auditory,TOJ,Adaptive,Duration,0.02,Auditory,0.5,Auditory,0.48,1,0.339,High_Tone,1
Human,113,3,1,107,Auditory,TOJ,Adaptive,Duration,0.02,Auditory,0.5,Auditory,0.48,1,0.334,Low_Tone,1
Human,113,3,1,108,Auditory,TOJ,Adaptive,Duration,0.026,Auditory,0.5,Auditory,0.474,1,0.062,Low_Tone,1
Human,113,3,1,109,Auditory,TOJ,Adaptive,Duration,0.026,Auditory,0.5,Auditory,0.474,2,0.891,High_Tone,1
Human,113,3,1,110,Auditory,TOJ,Adaptive,Duration,0.02,Auditory,0.5,Auditory,0.48,1,0.061,High_Tone,1
Human,113,3,1,111,Auditory,TOJ,Adaptive,Duration,0.026,Auditory,0.5,Auditory,0.474,1,0.278,High_Tone,1
Human,113,3,1,112,Auditory,TOJ,Adaptive,Duration,0.026,Auditory,0.5,Auditory,0.474,1,0.04,High_Tone,1
Human,113,3,1,113,Auditory,TOJ,Adaptive,Duration,0.026,Auditory,0.5,Auditory,0.474,1,0.593,Low_Tone,1
Human,113,3,1,114,Auditory,TOJ,Adaptive,Duration,0.026,Auditory,0.5,Auditory,0.474,1,0.459,Low_Tone,1
Human,113,3,1,115,Auditory,TOJ,Adaptive,Duration,0.032,Auditory,0.5,Auditory,0.468,1,0.95,High_Tone,1
Human,113,3,1,116,Auditory,TOJ,Adaptive,Duration,0.032,Auditory,0.5,Auditory,0.468,1,0.441,High_Tone,1
Human,113,3,1,117,Auditory,TOJ,Adaptive,Duration,0.026,Auditory,0.5,Auditory,0.474,2,0.902,Low_Tone,1
Human,113,3,1,118,Auditory,TOJ,Adaptive,Duration,0.032,Auditory,0.5,Auditory,0.468,1,0.287,Low_Tone,1
Human,113,3,1,119,Auditory,TOJ,Adaptive,Duration,0.02,Auditory,0.5,Auditory,0.48,1,0.376,High_Tone,1
Human,113,3,1,120,Auditory,TOJ,Adaptive,Duration,0.026,Auditory,0.5,Auditory,0.474,1,0.293,Low_Tone,1
Human,113,3,1,121,Auditory,TOJ,Adaptive,Duration,0.02,Auditory,0.5,Auditory,0.48,2,0.085,Low_Tone,1
Human,113,3,1,122,Auditory,TOJ,Adaptive,Duration,0.032,Auditory,0.5,Auditory,0.468,1,1.25,Low_Tone,1
Human,113,3,1,123,Auditory,TOJ,Adaptive,Duration,0.02,Auditory,0.5,Auditory,0.48,1,0.282,High_Tone,1
Human,113,3,1,124,Auditory,TOJ,Adaptive,Duration,0.026,Auditory,0.5,Auditory,0.474,1,0.327,High_Tone,1
Human,113,3,1,125,Auditory,TOJ,Adaptive,Duration,0.032,Auditory,0.5,Auditory,0.468,1,0.099,Low_Tone,1
Human,113,3,1,126,Auditory,TOJ,Adaptive,Duration,0.026,Auditory,0.5,Auditory,0.474,1,0.208,High_Tone,1
Human,113,3,1,127,Auditory,TOJ,Adaptive,Duration,0.026,Auditory,0.5,Auditory,0.474,1,0.239,Low_Tone,1
Human,113,3,1,128,Auditory,TOJ,Adaptive,Duration,0.026,Auditory,0.5,Auditory,0.474,2,0.164,High_Tone,1
Human,113,3,1,129,Auditory,TOJ,Adaptive,Duration,0.02,Auditory,0.5,Auditory,0.48,2,0.723,Low_Tone,1
Human,113,3,1,130,Auditory,TOJ,Adaptive,Duration,0.032,Auditory,0.5,Auditory,0.468,1,0.203,Low_Tone,1
Human,113,3,1,131,Auditory,TOJ,Adaptive,Duration,0.02,Auditory,0.5,Auditory,0.48,1,0.238,Low_Tone,1
Human,113,3,1,132,Auditory,TOJ,Adaptive,Duration,0.02,Auditory,0.5,Auditory,0.48,1,0.25,Low_Tone,1
Human,113,3,1,133,Auditory,TOJ,Adaptive,Duration,0.026,Auditory,0.5,Auditory,0.474,1,0.405,Low_Tone,1
Human,113,3,1,134,Auditory,TOJ,Adaptive,Duration,0.026,Auditory,0.5,Auditory,0.474,1,0.215,Low_Tone,1
Human,113,3,1,135,Auditory,TOJ,Adaptive,Duration,0.02,Auditory,0.5,Auditory,0.48,1,0.274,High_Tone,1
Human,113,3,1,136,Auditory,TOJ,Adaptive,Duration,0.032,Auditory,0.5,Auditory,0.468,1,0.224,Low_Tone,1
Human,113,3,1,137,Auditory,TOJ,Adaptive,Duration,0.02,Auditory,0.5,Auditory,0.48,1,0.063,Low_Tone,1
Human,113,3,1,138,Auditory,TOJ,Adaptive,Duration,0.02,Auditory,0.5,Auditory,0.48,1,0.066,High_Tone,1
Human,113,3,1,139,Auditory,TOJ,Adaptive,Duration,0.032,Auditory,0.5,Auditory,0.468,1,0.205,High_Tone,1
Human,113,3,1,140,Auditory,TOJ,Adaptive,Duration,0.032,Auditory,0.5,Auditory,0.468,1,0.249,High_Tone,1
Human,113,3,1,141,Auditory,TOJ,Adaptive,Duration,0.026,Auditory,0.5,Auditory,0.474,1,0.177,Low_Tone,1
Human,113,3,1,142,Auditory,TOJ,Adaptive,Duration,0.032,Auditory,0.5,Auditory,0.468,1,0.074,High_Tone,1
Human,113,3,1,143,Auditory,TOJ,Adaptive,Duration,0.032,Auditory,0.5,Auditory,0.468,1,0.182,High_Tone,1
Human,113,3,1,144,Auditory,TOJ,Adaptive,Duration,0.026,Auditory,0.5,Auditory,0.474,1,0.73,High_Tone,1
Human,113,3,1,145,Auditory,TOJ,Adaptive,Duration,0.02,Auditory,0.5,Auditory,0.48,1,0.677,High_Tone,1
Human,113,3,1,146,Auditory,TOJ,Adaptive,Duration,0.026,Auditory,0.5,Auditory,0.474,1,0.272,High_Tone,1
Human,113,3,1,147,Auditory,TOJ,Adaptive,Duration,0.026,Auditory,0.5,Auditory,0.474,1,0.153,Low_Tone,1
Human,113,3,1,148,Auditory,TOJ,Adaptive,Duration,0.026,Auditory,0.5,Auditory,0.474,1,0.474,Low_Tone,1
Human,113,3,1,149,Auditory,TOJ,Adaptive,Duration,0.02,Auditory,0.5,Auditory,0.48,2,0.438,High_Tone,1
Human,113,3,1,150,Auditory,TOJ,Adaptive,Duration,0.02,Auditory,0.5,Auditory,0.48,1,0.046,Low_Tone,1
Human,113,3,1,151,Auditory,TOJ,Adaptive,Duration,0.032,Auditory,0.5,Auditory,0.468,1,0.55,Low_Tone,1
Human,113,3,1,152,Auditory,TOJ,Adaptive,Duration,0.02,Auditory,0.5,Auditory,0.48,1,0.329,Low_Tone,1
Human,113,3,1,153,Auditory,TOJ,Adaptive,Duration,0.032,Auditory,0.5,Auditory,0.468,1,0.301,Low_Tone,1
Human,113,3,1,154,Auditory,TOJ,Adaptive,Duration,0.026,Auditory,0.5,Auditory,0.474,1,0.323,High_Tone,1
Human,113,3,1,155,Auditory,TOJ,Adaptive,Duration,0.02,Auditory,0.5,Auditory,0.48,2,0.386,High_Tone,1
Human,113,3,1,156,Auditory,TOJ,Adaptive,Duration,0.032,Auditory,0.5,Auditory,0.468,1,0.002,High_Tone,1
Human,113,3,1,157,Auditory,TOJ,Adaptive,Duration,0.026,Auditory,0.5,Auditory,0.474,1,0.083,High_Tone,1
Human,113,3,1,158,Auditory,TOJ,Adaptive,Duration,0.02,Auditory,0.5,Auditory,0.48,1,0.098,High_Tone,1
Human,113,3,1,159,Auditory,TOJ,Adaptive,Duration,0.026,Auditory,0.5,Auditory,0.474,2,0.148,Low_Tone,1
Human,113,3,1,160,Auditory,TOJ,Adaptive,Duration,0.02,Auditory,0.5,Auditory,0.48,1,0.007,High_Tone,1
Human,113,3,1,161,Auditory,TOJ,Adaptive,Duration,0.02,Auditory,0.5,Auditory,0.48,1,0.487,Low_Tone,1
Human,113,3,1,162,Auditory,TOJ,Adaptive,Duration,0.026,Auditory,0.5,Auditory,0.474,1,0.679,High_Tone,1
Human,113,3,1,163,Auditory,TOJ,Adaptive,Duration,0.032,Auditory,0.5,Auditory,0.468,1,0.141,Low_Tone,1
Human,113,3,1,164,Auditory,TOJ,Adaptive,Duration,0.032,Auditory,0.5,Auditory,0.468,1,0.109,High_Tone,1
Human,113,3,1,165,Auditory,TOJ,Adaptive,Duration,0.032,Auditory,0.5,Auditory,0.468,1,0.212,Low_Tone,1
Human,113,3,1,166,Auditory,TOJ,Adaptive,Duration,0.026,Auditory,0.5,Auditory,0.474,2,0.328,High_Tone,1
Human,113,3,1,167,Auditory,TOJ,Adaptive,Duration,0.032,Auditory,0.5,Auditory,0.468,1,0.127,Low_Tone,1
Human,113,3,1,168,Auditory,TOJ,Adaptive,Duration,0.032,Auditory,0.5,Auditory,0.468,1,0.026,High_Tone,1
Human,113,3,1,169,Auditory,TOJ,Adaptive,Duration,0.02,Auditory,0.5,Auditory,0.48,1,0.107,Low_Tone,3
Human,113,3,1,170,Auditory,TOJ,Adaptive,Duration,0.032,Auditory,0.5,Auditory,0.468,1,0.304,Low_Tone,3
Human,113,3,1,171,Auditory,TOJ,Adaptive,Duration,0.026,Auditory,0.5,Auditory,0.474,1,0.092,High_Tone,3
Human,113,3,1,172,Auditory,TOJ,Adaptive,Duration,0.026,Auditory,0.5,Auditory,0.474,2,0.078,Low_Tone,3
Human,113,3,1,173,Auditory,TOJ,Adaptive,Duration,0.026,Auditory,0.5,Auditory,0.474,2,0.731,Low_Tone,3
Human,113,3,1,174,Auditory,TOJ,Adaptive,Duration,0.032,Auditory,0.5,Auditory,0.468,1,1.259,High_Tone,3
Human,113,3,1,175,Auditory,TOJ,Adaptive,Duration,0.032,Auditory,0.5,Auditory,0.468,1,0.125,High_Tone,3
Human,113,3,1,176,Auditory,TOJ,Adaptive,Duration,0.026,Auditory,0.5,Auditory,0.474,1,0.201,Low_Tone,3
Human,113,3,1,177,Auditory,TOJ,Adaptive,Duration,0.026,Auditory,0.5,Auditory,0.474,2,1.211,High_Tone,3
Human,113,3,1,178,Auditory,TOJ,Adaptive,Duration,0.032,Auditory,0.5,Auditory,0.468,1,0.12,High_Tone,3
Human,113,3,1,179,Auditory,TOJ,Adaptive,Duration,0.032,Auditory,0.5,Auditory,0.468,1,0.144,Low_Tone,3
Human,113,3,1,180,Auditory,TOJ,Adaptive,Duration,0.02,Auditory,0.5,Auditory,0.48,2,0.451,High_Tone,3
Human,113,3,1,181,Auditory,TOJ,Adaptive,Duration,0.032,Auditory,0.5,Auditory,0.468,1,0.013,High_Tone,3
Human,113,3,1,182,Auditory,TOJ,Adaptive,Duration,0.02,Auditory,0.5,Auditory,0.48,2,0.69,Low_Tone,3
Human,113,3,1,183,Auditory,TOJ,Adaptive,Duration,0.032,Auditory,0.5,Auditory,0.468,1,0.059,Low_Tone,3
Human,113,3,1,184,Auditory,TOJ,Adaptive,Duration,0.02,Auditory,0.5,Auditory,0.48,1,0.126,High_Tone,3
Human,113,3,1,185,Auditory,TOJ,Adaptive,Duration,0.02,Auditory,0.5,Auditory,0.48,1,0.251,High_Tone,3
Human,113,3,1,186,Auditory,TOJ,Adaptive,Duration,0.032,Auditory,0.5,Auditory,0.468,1,0.186,High_Tone,3
Human,113,3,1,187,Auditory,TOJ,Adaptive,Duration,0.032,Auditory,0.5,Auditory,0.468,1,0.015,High_Tone,3
Human,113,3,1,188,Auditory,TOJ,Adaptive,Duration,0.032,Auditory,0.5,Auditory,0.468,1,0.036,Low_Tone,3
Human,113,3,1,189,Auditory,TOJ,Adaptive,Duration,0.026,Auditory,0.5,Auditory,0.474,1,0.01,High_Tone,3
Human,113,3,1,190,Auditory,TOJ,Adaptive,Duration,0.02,Auditory,0.5,Auditory,0.48,1,0.146,Low_Tone,3
Human,113,3,1,191,Auditory,TOJ,Adaptive,Duration,0.02,Auditory,0.5,Auditory,0.48,2,0.25,High_Tone,3
Human,113,3,1,192,Auditory,TOJ,Adaptive,Duration,0.02,Auditory,0.5,Auditory,0.48,1,0.038,Low_Tone,3
Human,113,3,1,193,Auditory,TOJ,Adaptive,Duration,0.032,Auditory,0.5,Auditory,0.468,1,0.082,Low_Tone,3
Human,113,3,1,194,Auditory,TOJ,Adaptive,Duration,0.02,Auditory,0.5,Auditory,0.48,1,0.232,Low_Tone,3
Human,113,3,1,195,Auditory,TOJ,Adaptive,Duration,0.02,Auditory,0.5,Auditory,0.48,1,0.069,Low_Tone,3
Human,113,3,1,196,Auditory,TOJ,Adaptive,Duration,0.026,Auditory,0.5,Auditory,0.474,1,0.009,High_Tone,3
Human,113,3,1,197,Auditory,TOJ,Adaptive,Duration,0.026,Auditory,0.5,Auditory,0.474,1,0.001,High_Tone,3
Human,113,3,1,198,Auditory,TOJ,Adaptive,Duration,0.02,Auditory,0.5,Auditory,0.48,1,0.997,High_Tone,3
Human,113,3,1,199,Auditory,TOJ,Adaptive,Duration,0.026,Auditory,0.5,Auditory,0.474,2,2.197,High_Tone,3
Human,113,3,1,200,Auditory,TOJ,Adaptive,Duration,0.032,Auditory,0.5,Auditory,0.468,1,0.047,Low_Tone,3
Human,113,3,1,201,Auditory,TOJ,Adaptive,Duration,0.026,Auditory,0.5,Auditory,0.474,1,0.066,Low_Tone,3
Human,113,3,1,202,Auditory,TOJ,Adaptive,Duration,0.032,Auditory,0.5,Auditory,0.468,1,0.329,High_Tone,3
Human,113,3,1,203,Auditory,TOJ,Adaptive,Duration,0.02,Auditory,0.5,Auditory,0.48,1,0.079,High_Tone,3
Human,113,3,1,204,Auditory,TOJ,Adaptive,Duration,0.026,Auditory,0.5,Auditory,0.474,1,0.77,Low_Tone,3
Human,113,3,1,205,Auditory,TOJ,Adaptive,Duration,0.026,Auditory,0.5,Auditory,0.474,1,0.282,Low_Tone,3
Human,113,3,1,206,Auditory,TOJ,Adaptive,Duration,0.02,Auditory,0.5,Auditory,0.48,1,1.079,Low_Tone,3
Human,113,3,1,207,Auditory,TOJ,Adaptive,Duration,0.032,Auditory,0.5,Auditory,0.468,1,0.572,Low_Tone,3
Human,113,3,1,208,Auditory,TOJ,Adaptive,Duration,0.02,Auditory,0.5,Auditory,0.48,1,0.077,High_Tone,3
Human,113,3,1,209,Auditory,TOJ,Adaptive,Duration,0.026,Auditory,0.5,Auditory,0.474,1,0.056,High_Tone,3
Human,113,3,1,210,Auditory,TOJ,Adaptive,Duration,0.026,Auditory,0.5,Auditory,0.474,1,0.103,Low_Tone,3
Human,113,3,1,211,Auditory,TOJ,Adaptive,Duration,0.026,Auditory,0.5,Auditory,0.474,2,0.575,High_Tone,2
Human,113,3,1,212,Auditory,TOJ,Adaptive,Duration,0.02,Auditory,0.5,Auditory,0.48,1,0.037,High_Tone,2
Human,113,3,1,213,Auditory,TOJ,Adaptive,Duration,0.026,Auditory,0.5,Auditory,0.474,1,0.127,Low_Tone,2
Human,113,3,1,214,Auditory,TOJ,Adaptive,Duration,0.032,Auditory,0.5,Auditory,0.468,1,0.614,High_Tone,2
Human,113,3,1,215,Auditory,TOJ,Adaptive,Duration,0.026,Auditory,0.5,Auditory,0.474,1,0.038,High_Tone,2
Human,113,3,1,216,Auditory,TOJ,Adaptive,Duration,0.032,Auditory,0.5,Auditory,0.468,1,0.03,Low_Tone,2
Human,113,3,1,217,Auditory,TOJ,Adaptive,Duration,0.026,Auditory,0.5,Auditory,0.474,2,0.001,High_Tone,2
Human,113,3,1,218,Auditory,TOJ,Adaptive,Duration,0.02,Auditory,0.5,Auditory,0.48,1,0.46,High_Tone,2
Human,113,3,1,219,Auditory,TOJ,Adaptive,Duration,0.032,Auditory,0.5,Auditory,0.468,1,0.722,High_Tone,2
Human,113,3,1,220,Auditory,TOJ,Adaptive,Duration,0.02,Auditory,0.5,Auditory,0.48,1,0.666,Low_Tone,2
Human,113,3,1,221,Auditory,TOJ,Adaptive,Duration,0.02,Auditory,0.5,Auditory,0.48,1,0.096,High_Tone,2
Human,113,3,1,222,Auditory,TOJ,Adaptive,Duration,0.02,Auditory,0.5,Auditory,0.48,1,0.152,Low_Tone,2
Human,113,3,1,223,Auditory,TOJ,Adaptive,Duration,0.032,Auditory,0.5,Auditory,0.468,1,0.091,Low_Tone,2
Human,113,3,1,224,Auditory,TOJ,Adaptive,Duration,0.026,Auditory,0.5,Auditory,0.474,1,0.08,High_Tone,2
Human,113,3,1,225,Auditory,TOJ,Adaptive,Duration,0.032,Auditory,0.5,Auditory,0.468,2,0.354,High_Tone,2
Human,113,3,1,226,Auditory,TOJ,Adaptive,Duration,0.032,Auditory,0.5,Auditory,0.468,1,0.502,High_Tone,2
Human,113,3,1,227,Auditory,TOJ,Adaptive,Duration,0.026,Auditory,0.5,Auditory,0.474,1,0.094,Low_Tone,2
Human,113,3,1,228,Auditory,TOJ,Adaptive,Duration,0.02,Auditory,0.5,Auditory,0.48,2,0.53,Low_Tone,2
Human,113,3,1,229,Auditory,TOJ,Adaptive,Duration,0.026,Auditory,0.5,Auditory,0.474,2,0.407,High_Tone,2
Human,113,3,1,230,Auditory,TOJ,Adaptive,Duration,0.032,Auditory,0.5,Auditory,0.468,1,0.037,High_Tone,2
Human,113,3,1,231,Auditory,TOJ,Adaptive,Duration,0.032,Auditory,0.5,Auditory,0.468,1,0.266,Low_Tone,2
Human,113,3,1,232,Auditory,TOJ,Adaptive,Duration,0.032,Auditory,0.5,Auditory,0.468,1,0.735,Low_Tone,2
Human,113,3,1,233,Auditory,TOJ,Adaptive,Duration,0.032,Auditory,0.5,Auditory,0.468,1,0.094,Low_Tone,2
Human,113,3,1,234,Auditory,TOJ,Adaptive,Duration,0.032,Auditory,0.5,Auditory,0.468,1,0.119,Low_Tone,2
Human,113,3,1,235,Auditory,TOJ,Adaptive,Duration,0.032,Auditory,0.5,Auditory,0.468,1,0.186,Low_Tone,2
Human,113,3,1,236,Auditory,TOJ,Adaptive,Duration,0.02,Auditory,0.5,Auditory,0.48,1,0.039,High_Tone,2
Human,113,3,1,237,Auditory,TOJ,Adaptive,Duration,0.02,Auditory,0.5,Auditory,0.48,1,0.162,Low_Tone,2
Human,113,3,1,238,Auditory,TOJ,Adaptive,Duration,0.026,Auditory,0.5,Auditory,0.474,1,0.06,Low_Tone,2
Human,113,3,1,239,Auditory,TOJ,Adaptive,Duration,0.02,Auditory,0.5,Auditory,0.48,1,0.033,High_Tone,2
Human,113,3,1,240,Auditory,TOJ,Adaptive,Duration,0.026,Auditory,0.5,Auditory,0.474,1,0.157,High_Tone,2
Human,113,3,1,241,Auditory,TOJ,Adaptive,Duration,0.02,Auditory,0.5,Auditory,0.48,1,0.143,Low_Tone,2
Human,113,3,1,242,Auditory,TOJ,Adaptive,Duration,0.026,Auditory,0.5,Auditory,0.474,1,0.416,Low_Tone,2
Human,113,3,1,243,Auditory,TOJ,Adaptive,Duration,0.026,Auditory,0.5,Auditory,0.474,2,1.144,Low_Tone,2
Human,113,3,1,244,Auditory,TOJ,Adaptive,Duration,0.02,Auditory,0.5,Auditory,0.48,2,0.314,Low_Tone,2
Human,113,3,1,245,Auditory,TOJ,Adaptive,Duration,0.032,Auditory,0.5,Auditory,0.468,1,0.123,High_Tone,2
Human,113,3,1,246,Auditory,TOJ,Adaptive,Duration,0.026,Auditory,0.5,Auditory,0.474,1,0.088,Low_Tone,2
Human,113,3,1,247,Auditory,TOJ,Adaptive,Duration,0.02,Auditory,0.5,Auditory,0.48,2,0.283,High_Tone,2
Human,113,3,1,248,Auditory,TOJ,Adaptive,Duration,0.026,Auditory,0.5,Auditory,0.474,1,0.052,High_Tone,2
Human,113,3,1,249,Auditory,TOJ,Adaptive,Duration,0.02,Auditory,0.5,Auditory,0.48,2,0.051,Low_Tone,2
Human,113,3,1,250,Auditory,TOJ,Adaptive,Duration,0.032,Auditory,0.5,Auditory,0.468,1,0.117,High_Tone,2
Human,113,3,1,251,Auditory,TOJ,Adaptive,Duration,0.02,Auditory,0.5,Auditory,0.48,1,0.016,High_Tone,2
Human,113,3,1,252,Auditory,TOJ,Adaptive,Duration,0.026,Auditory,0.5,Auditory,0.474,2,0.12,Low_Tone,2
Human,114,4,1,1,Auditory,TOJ,Adaptive,Duration,0.145,Auditory,0.5,Auditory,0.355,2,1.292,High_Tone,2
Human,114,4,1,2,Auditory,TOJ,Adaptive,Duration,0.181,Auditory,0.5,Auditory,0.319,1,0.455,Low_Tone,2
Human,114,4,1,3,Auditory,TOJ,Adaptive,Duration,0.145,Auditory,0.5,Auditory,0.355,1,0.278,Low_Tone,2
Human,114,4,1,4,Auditory,TOJ,Adaptive,Duration,0.181,Auditory,0.5,Auditory,0.319,1,0.139,Low_Tone,2
Human,114,4,1,5,Auditory,TOJ,Adaptive,Duration,0.181,Auditory,0.5,Auditory,0.319,1,0.43,High_Tone,2
Human,114,4,1,6,Auditory,TOJ,Adaptive,Duration,0.145,Auditory,0.5,Auditory,0.355,2,0.149,High_Tone,2
Human,114,4,1,7,Auditory,TOJ,Adaptive,Duration,0.145,Auditory,0.5,Auditory,0.355,1,4.412,High_Tone,2
Human,114,4,1,8,Auditory,TOJ,Adaptive,Duration,0.109,Auditory,0.5,Auditory,0.391,1,0.151,High_Tone,2
Human,114,4,1,9,Auditory,TOJ,Adaptive,Duration,0.109,Auditory,0.5,Auditory,0.391,1,0.798,Low_Tone,2
Human,114,4,1,10,Auditory,TOJ,Adaptive,Duration,0.145,Auditory,0.5,Auditory,0.355,1,2.662,Low_Tone,2
Human,114,4,1,11,Auditory,TOJ,Adaptive,Duration,0.145,Auditory,0.5,Auditory,0.355,1,0.573,High_Tone,2
Human,114,4,1,12,Auditory,TOJ,Adaptive,Duration,0.181,Auditory,0.5,Auditory,0.319,1,0.407,High_Tone,2
Human,114,4,1,13,Auditory,TOJ,Adaptive,Duration,0.181,Auditory,0.5,Auditory,0.319,1,0.032,Low_Tone,2
Human,114,4,1,14,Auditory,TOJ,Adaptive,Duration,0.181,Auditory,0.5,Auditory,0.319,1,1.045,High_Tone,2
Human,114,4,1,15,Auditory,TOJ,Adaptive,Duration,0.109,Auditory,0.5,Auditory,0.391,1,0.158,High_Tone,2
Human,114,4,1,16,Auditory,TOJ,Adaptive,Duration,0.181,Auditory,0.5,Auditory,0.319,1,0.139,Low_Tone,2
Human,114,4,1,17,Auditory,TOJ,Adaptive,Duration,0.109,Auditory,0.5,Auditory,0.391,1,0.121,Low_Tone,2
Human,114,4,1,18,Auditory,TOJ,Adaptive,Duration,0.145,Auditory,0.5,Auditory,0.355,1,0.254,High_Tone,2
Human,114,4,1,19,Auditory,TOJ,Adaptive,Duration,0.145,Auditory,0.5,Auditory,0.355,1,0.25,Low_Tone,2
Human,114,4,1,20,Auditory,TOJ,Adaptive,Duration,0.181,Auditory,0.5,Auditory,0.319,1,0.173,High_Tone,2
Human,114,4,1,21,Auditory,TOJ,Adaptive,Duration,0.181,Auditory,0.5,Auditory,0.319,1,0.241,Low_Tone,2
Human,114,4,1,22,Auditory,TOJ,Adaptive,Duration,0.181,Auditory,0.5,Auditory,0.319,1,0.152,High_Tone,2
Human,114,4,1,23,Auditory,TOJ,Adaptive,Duration,0.145,Auditory,0.5,Auditory,0.355,1,1.363,High_Tone,2
Human,114,4,1,24,Auditory,TOJ,Adaptive,Duration,0.181,Auditory,0.5,Auditory,0.319,1,0.609,High_Tone,2
Human,114,4,1,25,Auditory,TOJ,Adaptive,Duration,0.109,Auditory,0.5,Auditory,0.391,1,0.456,High_Tone,2
Human,114,4,1,26,Auditory,TOJ,Adaptive,Duration,0.181,Auditory,0.5,Auditory,0.319,1,0.227,Low_Tone,2
Human,114,4,1,27,Auditory,TOJ,Adaptive,Duration,0.109,Auditory,0.5,Auditory,0.391,1,0.258,Low_Tone,2
Human,114,4,1,28,Auditory,TOJ,Adaptive,Duration,0.145,Auditory,0.5,Auditory,0.355,1,0.8,Low_Tone,2
Human,114,4,1,29,Auditory,TOJ,Adaptive,Duration,0.145,Auditory,0.5,Auditory,0.355,1,0.057,Low_Tone,2
Human,114,4,1,30,Auditory,TOJ,Adaptive,Duration,0.145,Auditory,0.5,Auditory,0.355,1,0.001,Low_Tone,2
Human,114,4,1,31,Auditory,TOJ,Adaptive,Duration,0.109,Auditory,0.5,Auditory,0.391,1,0.394,High_Tone,2
Human,114,4,1,32,Auditory,TOJ,Adaptive,Duration,0.181,Auditory,0.5,Auditory,0.319,1,0.017,Low_Tone,2
Human,114,4,1,33,Auditory,TOJ,Adaptive,Duration,0.145,Auditory,0.5,Auditory,0.355,1,0.001,High_Tone,2
Human,114,4,1,34,Auditory,TOJ,Adaptive,Duration,0.109,Auditory,0.5,Auditory,0.391,1,0.161,High_Tone,2
Human,114,4,1,35,Auditory,TOJ,Adaptive,Duration,0.109,Auditory,0.5,Auditory,0.391,1,0.076,Low_Tone,2
Human,114,4,1,36,Auditory,TOJ,Adaptive,Duration,0.109,Auditory,0.5,Auditory,0.391,1,0.287,Low_Tone,2
Human,114,4,1,37,Auditory,TOJ,Adaptive,Duration,0.109,Auditory,0.5,Auditory,0.391,1,0.208,High_Tone,2
Human,114,4,1,38,Auditory,TOJ,Adaptive,Duration,0.109,Auditory,0.5,Auditory,0.391,1,0.236,Low_Tone,2
Human,114,4,1,39,Auditory,TOJ,Adaptive,Duration,0.181,Auditory,0.5,Auditory,0.319,1,0.027,High_Tone,2
Human,114,4,1,40,Auditory,TOJ,Adaptive,Duration,0.145,Auditory,0.5,Auditory,0.355,1,0.16,Low_Tone,2
Human,114,4,1,41,Auditory,TOJ,Adaptive,Duration,0.109,Auditory,0.5,Auditory,0.391,1,0.057,High_Tone,2
Human,114,4,1,42,Auditory,TOJ,Adaptive,Duration,0.109,Auditory,0.5,Auditory,0.391,1,0.37,Low_Tone,2
Human,114,4,1,43,Auditory,TOJ,Adaptive,Duration,0.181,Auditory,0.5,Auditory,0.319,1,0.12,High_Tone,3
Human,114,4,1,44,Auditory,TOJ,Adaptive,Duration,0.145,Auditory,0.5,Auditory,0.355,1,0.112,Low_Tone,3
Human,114,4,1,45,Auditory,TOJ,Adaptive,Duration,0.181,Auditory,0.5,Auditory,0.319,1,0.023,High_Tone,3
Human,114,4,1,46,Auditory,TOJ,Adaptive,Duration,0.145,Auditory,0.5,Auditory,0.355,1,1.759,High_Tone,3
Human,114,4,1,47,Auditory,TOJ,Adaptive,Duration,0.181,Auditory,0.5,Auditory,0.319,1,0.01,High_Tone,3
Human,114,4,1,48,Auditory,TOJ,Adaptive,Duration,0.181,Auditory,0.5,Auditory,0.319,1,0.054,Low_Tone,3
Human,114,4,1,49,Auditory,TOJ,Adaptive,Duration,0.109,Auditory,0.5,Auditory,0.391,1,0.674,High_Tone,3
Human,114,4,1,50,Auditory,TOJ,Adaptive,Duration,0.109,Auditory,0.5,Auditory,0.391,1,0.065,High_Tone,3
Human,114,4,1,51,Auditory,TOJ,Adaptive,Duration,0.145,Auditory,0.5,Auditory,0.355,1,0.223,High_Tone,3
Human,114,4,1,52,Auditory,TOJ,Adaptive,Duration,0.181,Auditory,0.5,Auditory,0.319,1,0.132,Low_Tone,3
Human,114,4,1,53,Auditory,TOJ,Adaptive,Duration,0.109,Auditory,0.5,Auditory,0.391,1,0.042,Low_Tone,3
Human,114,4,1,54,Auditory,TOJ,Adaptive,Duration,0.145,Auditory,0.5,Auditory,0.355,1,0.047,Low_Tone,3
Human,114,4,1,55,Auditory,TOJ,Adaptive,Duration,0.145,Auditory,0.5,Auditory,0.355,1,0.87,High_Tone,3
Human,114,4,1,56,Auditory,TOJ,Adaptive,Duration,0.145,Auditory,0.5,Auditory,0.355,1,0.052,Low_Tone,3
Human,114,4,1,57,Auditory,TOJ,Adaptive,Duration,0.181,Auditory,0.5,Auditory,0.319,1,0.146,High_Tone,3
Human,114,4,1,58,Auditory,TOJ,Adaptive,Duration,0.109,Auditory,0.5,Auditory,0.391,1,1.222,High_Tone,3
Human,114,4,1,59,Auditory,TOJ,Adaptive,Duration,0.109,Auditory,0.5,Auditory,0.391,1,0.537,High_Tone,3
Human,114,4,1,60,Auditory,TOJ,Adaptive,Duration,0.109,Auditory,0.5,Auditory,0.391,1,0.875,High_Tone,3
Human,114,4,1,61,Auditory,TOJ,Adaptive,Duration,0.145,Auditory,0.5,Auditory,0.355,1,1.001,Low_Tone,3
Human,114,4,1,62,Auditory,TOJ,Adaptive,Duration,0.181,Auditory,0.5,Auditory,0.319,1,0.087,Low_Tone,3
Human,114,4,1,63,Auditory,TOJ,Adaptive,Duration,0.109,Auditory,0.5,Auditory,0.391,1,0.273,Low_Tone,3
Human,114,4,1,64,Auditory,TOJ,Adaptive,Duration,0.181,Auditory,0.5,Auditory,0.319,1,0.014,High_Tone,3
Human,114,4,1,65,Auditory,TOJ,Adaptive,Duration,0.181,Auditory,0.5,Auditory,0.319,1,0.111,Low_Tone,3
Human,114,4,1,66,Auditory,TOJ,Adaptive,Duration,0.109,Auditory,0.5,Auditory,0.391,1,0.251,Low_Tone,3
Human,114,4,1,67,Auditory,TOJ,Adaptive,Duration,0.145,Auditory,0.5,Auditory,0.355,1,0.153,High_Tone,3
Human,114,4,1,68,Auditory,TOJ,Adaptive,Duration,0.145,Auditory,0.5,Auditory,0.355,1,0.13,High_Tone,3
Human,114,4,1,69,Auditory,TOJ,Adaptive,Duration,0.109,Auditory,0.5,Auditory,0.391,1,0.334,Low_Tone,3
Human,114,4,1,70,Auditory,TOJ,Adaptive,Duration,0.145,Auditory,0.5,Auditory,0.355,1,0.692,Low_Tone,3
Human,114,4,1,71,Auditory,TOJ,Adaptive,Duration,0.109,Auditory,0.5,Auditory,0.391,1,0.947,High_Tone,3
Human,114,4,1,72,Auditory,TOJ,Adaptive,Duration,0.109,Auditory,0.5,Auditory,0.391,1,0.126,High_Tone,3
Human,114,4,1,73,Auditory,TOJ,Adaptive,Duration,0.109,Auditory,0.5,Auditory,0.391,1,0.054,Low_Tone,3
Human,114,4,1,74,Auditory,TOJ,Adaptive,Duration,0.109,Auditory,0.5,Auditory,0.391,1,0.081,Low_Tone,3
Human,114,4,1,75,Auditory,TOJ,Adaptive,Duration,0.145,Auditory,0.5,Auditory,0.355,1,0.537,High_Tone,3
Human,114,4,1,76,Auditory,TOJ,Adaptive,Duration,0.145,Auditory,0.5,Auditory,0.355,1,0.156,Low_Tone,3
Human,114,4,1,77,Auditory,TOJ,Adaptive,Duration,0.181,Auditory,0.5,Auditory,0.319,1,0.019,Low_Tone,3
Human,114,4,1,78,Auditory,TOJ,Adaptive,Duration,0.145,Auditory,0.5,Auditory,0.355,1,0.175,High_Tone,3
Human,114,4,1,79,Auditory,TOJ,Adaptive,Duration,0.145,Auditory,0.5,Auditory,0.355,1,0.016,Low_Tone,3
Human,114,4,1,80,Auditory,TOJ,Adaptive,Duration,0.181,Auditory,0.5,Auditory,0.319,1,0.657,Low_Tone,3
Human,114,4,1,81,Auditory,TOJ,Adaptive,Duration,0.181,Auditory,0.5,Auditory,0.319,1,0.204,Low_Tone,3
Human,114,4,1,82,Auditory,TOJ,Adaptive,Duration,0.181,Auditory,0.5,Auditory,0.319,1,0.19,High_Tone,3
Human,114,4,1,83,Auditory,TOJ,Adaptive,Duration,0.109,Auditory,0.5,Auditory,0.391,1,1.137,Low_Tone,3
Human,114,4,1,84,Auditory,TOJ,Adaptive,Duration,0.181,Auditory,0.5,Auditory,0.319,1,0.377,High_Tone,3
Human,114,4,1,85,Auditory,TOJ,Adaptive,Duration,0.145,Auditory,0.5,Auditory,0.355,1,0.136,High_Tone,1
Human,114,4,1,86,Auditory,TOJ,Adaptive,Duration,0.145,Auditory,0.5,Auditory,0.355,1,0.299,Low_Tone,1
Human,114,4,1,87,Auditory,TOJ,Adaptive,Duration,0.181,Auditory,0.5,Auditory,0.319,1,0.318,High_Tone,1
Human,114,4,1,88,Auditory,TOJ,Adaptive,Duration,0.145,Auditory,0.5,Auditory,0.355,1,0.869,Low_Tone,1
Human,114,4,1,89,Auditory,TOJ,Adaptive,Duration,0.109,Auditory,0.5,Auditory,0.391,1,0.147,High_Tone,1
Human,114,4,1,90,Auditory,TOJ,Adaptive,Duration,0.109,Auditory,0.5,Auditory,0.391,1,0.182,Low_Tone,1
Human,114,4,1,91,Auditory,TOJ,Adaptive,Duration,0.181,Auditory,0.5,Auditory,0.319,1,0.64,Low_Tone,1
Human,114,4,1,92,Auditory,TOJ,Adaptive,Duration,0.109,Auditory,0.5,Auditory,0.391,1,0.447,High_Tone,1
Human,114,4,1,93,Auditory,TOJ,Adaptive,Duration,0.109,Auditory,0.5,Auditory,0.391,1,0.425,Low_Tone,1
Human,114,4,1,94,Auditory,TOJ,Adaptive,Duration,0.181,Auditory,0.5,Auditory,0.319,1,0.329,High_Tone,1
Human,114,4,1,95,Auditory,TOJ,Adaptive,Duration,0.181,Auditory,0.5,Auditory,0.319,1,0.306,High_Tone,1
Human,114,4,1,96,Auditory,TOJ,Adaptive,Duration,0.145,Auditory,0.5,Auditory,0.355,1,0.009,High_Tone,1
Human,114,4,1,97,Auditory,TOJ,Adaptive,Duration,0.145,Auditory,0.5,Auditory,0.355,1,0.234,Low_Tone,1
Human,114,4,1,98,Auditory,TOJ,Adaptive,Duration,0.145,Auditory,0.5,Auditory,0.355,1,0.286,High_Tone,1
Human,114,4,1,99,Auditory,TOJ,Adaptive,Duration,0.181,Auditory,0.5,Auditory,0.319,1,0.71,Low_Tone,1
Human,114,4,1,100,Auditory,TOJ,Adaptive,Duration,0.145,Auditory,0.5,Auditory,0.355,1,0.007,High_Tone,1
Human,114,4,1,101,Auditory,TOJ,Adaptive,Duration,0.181,Auditory,0.5,Auditory,0.319,1,0.185,High_Tone,1
Human,114,4,1,102,Auditory,TOJ,Adaptive,Duration,0.181,Auditory,0.5,Auditory,0.319,1,0.167,Low_Tone,1
Human,114,4,1,103,Auditory,TOJ,Adaptive,Duration,0.181,Auditory,0.5,Auditory,0.319,1,0.207,Low_Tone,1
Human,114,4,1,104,Auditory,TOJ,Adaptive,Duration,0.145,Auditory,0.5,Auditory,0.355,1,0.059,Low_Tone,1
Human,114,4,1,105,Auditory,TOJ,Adaptive,Duration,0.109,Auditory,0.5,Auditory,0.391,1,0.213,Low_Tone,1
Human,114,4,1,106,Auditory,TOJ,Adaptive,Duration,0.145,Auditory,0.5,Auditory,0.355,1,0.213,High_Tone,1
Human,114,4,1,107,Auditory,TOJ,Adaptive,Duration,0.181,Auditory,0.5,Auditory,0.319,1,0.026,High_Tone,1
Human,114,4,1,108,Auditory,TOJ,Adaptive,Duration,0.109,Auditory,0.5,Auditory,0.391,1,0.588,Low_Tone,1
Human,114,4,1,109,Auditory,TOJ,Adaptive,Duration,0.109,Auditory,0.5,Auditory,0.391,1,0.259,Low_Tone,1
Human,114,4,1,110,Auditory,TOJ,Adaptive,Duration,0.181,Auditory,0.5,Auditory,0.319,1,0.045,Low_Tone,1
Human,114,4,1,111,Auditory,TOJ,Adaptive,Duration,0.145,Auditory,0.5,Auditory,0.355,1,0.065,Low_Tone,1
Human,114,4,1,112,Auditory,TOJ,Adaptive,Duration,0.181,Auditory,0.5,Auditory,0.319,1,0.061,Low_Tone,1
Human,114,4,1,113,Auditory,TOJ,Adaptive,Duration,0.109,Auditory,0.5,Auditory,0.391,1,0.037,High_Tone,1
Human,114,4,1,114,Auditory,TOJ,Adaptive,Duration,0.109,Auditory,0.5,Auditory,0.391,1,0.115,High_Tone,1
Human,114,4,1,115,Auditory,TOJ,Adaptive,Duration,0.145,Auditory,0.5,Auditory,0.355,1,0.172,Low_Tone,1
Human,114,4,1,116,Auditory,TOJ,Adaptive,Duration,0.145,Auditory,0.5,Auditory,0.355,1,0.159,High_Tone,1
Human,114,4,1,117,Auditory,TOJ,Adaptive,Duration,0.181,Auditory,0.5,Auditory,0.319,1,0.024,Low_Tone,1
Human,114,4,1,118,Auditory,TOJ,Adaptive,Duration,0.181,Auditory,0.5,Auditory,0.319,1,0.921,High_Tone,1
Human,114,4,1,119,Auditory,TOJ,Adaptive,Duration,0.109,Auditory,0.5,Auditory,0.391,1,0.438,Low_Tone,1
Human,114,4,1,120,Auditory,TOJ,Adaptive,Duration,0.145,Auditory,0.5,Auditory,0.355,1,0.333,Low_Tone,1
Human,114,4,1,121,Auditory,TOJ,Adaptive,Duration,0.145,Auditory,0.5,Auditory,0.355,1,0.095,High_Tone,1
Human,114,4,1,122,Auditory,TOJ,Adaptive,Duration,0.181,Auditory,0.5,Auditory,0.319,1,0.074,High_Tone,1
Human,114,4,1,123,Auditory,TOJ,Adaptive,Duration,0.109,Auditory,0.5,Auditory,0.391,1,0.433,High_Tone,1
Human,114,4,1,124,Auditory,TOJ,Adaptive,Duration,0.109,Auditory,0.5,Auditory,0.391,1,0.285,Low_Tone,1
Human,114,4,1,125,Auditory,TOJ,Adaptive,Duration,0.109,Auditory,0.5,Auditory,0.391,1,0.064,High_Tone,1
Human,114,4,1,126,Auditory,TOJ,Adaptive,Duration,0.109,Auditory,0.5,Auditory,0.391,1,0.222,High_Tone,1
Human,114,4,1,127,Auditory,TOJ,Adaptive,Duration,0.145,Auditory,0.5,Auditory,0.355,1,0.682,Low_Tone,1
Human,114,4,1,128,Auditory,TOJ,Adaptive,Duration,0.145,Auditory,0.5,Auditory,0.355,1,0.236,Low_Tone,1
Human,114,4,1,129,Auditory,TOJ,Adaptive,Duration,0.145,Auditory,0.5,Auditory,0.355,2,0.973,High_Tone,1
Human,114,4,1,130,Auditory,TOJ,Adaptive,Duration,0.181,Auditory,0.5,Auditory,0.319,1,1.333,High_Tone,1
Human,114,4,1,131,Auditory,TOJ,Adaptive,Duration,0.109,Auditory,0.5,Auditory,0.391,1,0.485,High_Tone,1
Human,114,4,1,132,Auditory,TOJ,Adaptive,Duration,0.181,Auditory,0.5,Auditory,0.319,1,0.782,Low_Tone,1
Human,114,4,1,133,Auditory,TOJ,Adaptive,Duration,0.109,Auditory,0.5,Auditory,0.391,1,0.972,High_Tone,1
Human,114,4,1,134,Auditory,TOJ,Adaptive,Duration,0.181,Auditory,0.5,Auditory,0.319,1,1.039,High_Tone,1
Human,114,4,1,135,Auditory,TOJ,Adaptive,Duration,0.145,Auditory,0.5,Auditory,0.355,1,0.063,Low_Tone,1
Human,114,4,1,136,Auditory,TOJ,Adaptive,Duration,0.181,Auditory,0.5,Auditory,0.319,1,0.003,Low_Tone,1
Human,114,4,1,137,Auditory,TOJ,Adaptive,Duration,0.109,Auditory,0.5,Auditory,0.391,1,0.571,Low_Tone,1
Human,114,4,1,138,Auditory,TOJ,Adaptive,Duration,0.109,Auditory,0.5,Auditory,0.391,1,0.123,Low_Tone,1
Human,114,4,1,139,Auditory,TOJ,Adaptive,Duration,0.145,Auditory,0.5,Auditory,0.355,1,0.932,Low_Tone,1
Human,114,4,1,140,Auditory,TOJ,Adaptive,Duration,0.109,Auditory,0.5,Auditory,0.391,1,0.365,Low_Tone,1
Human,114,4,1,141,Auditory,TOJ,Adaptive,Duration,0.181,Auditory,0.5,Auditory,0.319,1,0.247,Low_Tone,1
Human,114,4,1,142,Auditory,TOJ,Adaptive,Duration,0.181,Auditory,0.5,Auditory,0.319,1,0.221,High_Tone,1
Human,114,4,1,143,Auditory,TOJ,Adaptive,Duration,0.109,Auditory,0.5,Auditory,0.391,1,0.864,Low_Tone,1
Human,114,4,1,144,Auditory,TOJ,Adaptive,Duration,0.181,Auditory,0.5,Auditory,0.319,1,0.243,Low_Tone,1
Human,114,4,1,145,Auditory,TOJ,Adaptive,Duration,0.145,Auditory,0.5,Auditory,0.355,1,0.828,High_Tone,1
Human,114,4,1,146,Auditory,TOJ,Adaptive,Duration,0.109,Auditory,0.5,Auditory,0.391,1,0.678,High_Tone,1
Human,114,4,1,147,Auditory,TOJ,Adaptive,Duration,0.109,Auditory,0.5,Auditory,0.391,1,0.235,Low_Tone,1
Human,114,4,1,148,Auditory,TOJ,Adaptive,Duration,0.145,Auditory,0.5,Auditory,0.355,1,0.878,Low_Tone,1
Human,114,4,1,149,Auditory,TOJ,Adaptive,Duration,0.145,Auditory,0.5,Auditory,0.355,1,0.549,Low_Tone,1
Human,114,4,1,150,Auditory,TOJ,Adaptive,Duration,0.181,Auditory,0.5,Auditory,0.319,1,0.026,High_Tone,1
Human,114,4,1,151,Auditory,TOJ,Adaptive,Duration,0.181,Auditory,0.5,Auditory,0.319,1,0.188,Low_Tone,1
Human,114,4,1,152,Auditory,TOJ,Adaptive,Duration,0.181,Auditory,0.5,Auditory,0.319,1,0.083,Low_Tone,1
Human,114,4,1,153,Auditory,TOJ,Adaptive,Duration,0.109,Auditory,0.5,Auditory,0.391,1,0.142,High_Tone,1
Human,114,4,1,154,Auditory,TOJ,Adaptive,Duration,0.145,Auditory,0.5,Auditory,0.355,1,0.252,High_Tone,1
Human,114,4,1,155,Auditory,TOJ,Adaptive,Duration,0.109,Auditory,0.5,Auditory,0.391,1,0.427,High_Tone,1
Human,114,4,1,156,Auditory,TOJ,Adaptive,Duration,0.109,Auditory,0.5,Auditory,0.391,1,0.49,High_Tone,1
Human,114,4,1,157,Auditory,TOJ,Adaptive,Duration,0.181,Auditory,0.5,Auditory,0.319,1,0.591,High_Tone,1
Human,114,4,1,158,Auditory,TOJ,Adaptive,Duration,0.145,Auditory,0.5,Auditory,0.355,1,0.536,Low_Tone,1
Human,114,4,1,159,Auditory,TOJ,Adaptive,Duration,0.145,Auditory,0.5,Auditory,0.355,1,0.308,High_Tone,1
Human,114,4,1,160,Auditory,TOJ,Adaptive,Duration,0.145,Auditory,0.5,Auditory,0.355,1,0.233,High_Tone,1
Human,114,4,1,161,Auditory,TOJ,Adaptive,Duration,0.181,Auditory,0.5,Auditory,0.319,1,0.321,High_Tone,1
Human,114,4,1,162,Auditory,TOJ,Adaptive,Duration,0.109,Auditory,0.5,Auditory,0.391,1,0.236,Low_Tone,1
Human,114,4,1,163,Auditory,TOJ,Adaptive,Duration,0.181,Auditory,0.5,Auditory,0.319,1,0.205,Low_Tone,1
Human,114,4,1,164,Auditory,TOJ,Adaptive,Duration,0.181,Auditory,0.5,Auditory,0.319,1,0.078,High_Tone,1
Human,114,4,1,165,Auditory,TOJ,Adaptive,Duration,0.109,Auditory,0.5,Auditory,0.391,1,0.809,High_Tone,1
Human,114,4,1,166,Auditory,TOJ,Adaptive,Duration,0.109,Auditory,0.5,Auditory,0.391,1,0.326,Low_Tone,1
Human,114,4,1,167,Auditory,TOJ,Adaptive,Duration,0.145,Auditory,0.5,Auditory,0.355,1,0.11,High_Tone,1
Human,114,4,1,168,Auditory,TOJ,Adaptive,Duration,0.145,Auditory,0.5,Auditory,0.355,1,0.51,High_Tone,1
Human,114,4,1,169,Auditory,TOJ,Adaptive,Duration,0.109,Auditory,0.5,Auditory,0.391,1,0.514,Low_Tone,2
Human,114,4,1,170,Auditory,TOJ,Adaptive,Duration,0.181,Auditory,0.5,Auditory,0.319,1,0.147,High_Tone,2
Human,114,4,1,171,Auditory,TOJ,Adaptive,Duration,0.145,Auditory,0.5,Auditory,0.355,1,1.302,Low_Tone,2
Human,114,4,1,172,Auditory,TOJ,Adaptive,Duration,0.145,Auditory,0.5,Auditory,0.355,1,0.166,High_Tone,2
Human,114,4,1,173,Auditory,TOJ,Adaptive,Duration,0.145,Auditory,0.5,Auditory,0.355,1,0.211,Low_Tone,2
Human,114,4,1,174,Auditory,TOJ,Adaptive,Duration,0.181,Auditory,0.5,Auditory,0.319,1,0.077,High_Tone,2
Human,114,4,1,175,Auditory,TOJ,Adaptive,Duration,0.145,Auditory,0.5,Auditory,0.355,1,0.251,Low_Tone,2
Human,114,4,1,176,Auditory,TOJ,Adaptive,Duration,0.109,Auditory,0.5,Auditory,0.391,1,0.035,Low_Tone,2
Human,114,4,1,177,Auditory,TOJ,Adaptive,Duration,0.181,Auditory,0.5,Auditory,0.319,1,0.302,Low_Tone,2
Human,114,4,1,178,Auditory,TOJ,Adaptive,Duration,0.181,Auditory,0.5,Auditory,0.319,1,0.18,High_Tone,2
Human,114,4,1,179,Auditory,TOJ,Adaptive,Duration,0.109,Auditory,0.5,Auditory,0.391,1,0.876,High_Tone,2
Human,114,4,1,180,Auditory,TOJ,Adaptive,Duration,0.145,Auditory,0.5,Auditory,0.355,1,0.647,Low_Tone,2
Human,114,4,1,181,Auditory,TOJ,Adaptive,Duration,0.109,Auditory,0.5,Auditory,0.391,1,0.546,Low_Tone,2
Human,114,4,1,182,Auditory,TOJ,Adaptive,Duration,0.145,Auditory,0.5,Auditory,0.355,1,0.56,High_Tone,2
Human,114,4,1,183,Auditory,TOJ,Adaptive,Duration,0.145,Auditory,0.5,Auditory,0.355,1,0.161,High_Tone,2
Human,114,4,1,184,Auditory,TOJ,Adaptive,Duration,0.145,Auditory,0.5,Auditory,0.355,1,0.071,Low_Tone,2
Human,114,4,1,185,Auditory,TOJ,Adaptive,Duration,0.181,Auditory,0.5,Auditory,0.319,1,0.435,Low_Tone,2
Human,114,4,1,186,Auditory,TOJ,Adaptive,Duration,0.109,Auditory,0.5,Auditory,0.391,1,0.668,High_Tone,2
Human,114,4,1,187,Auditory,TOJ,Adaptive,Duration,0.109,Auditory,0.5,Auditory,0.391,1,0.76,High_Tone,2
Human,114,4,1,188,Auditory,TOJ,Adaptive,Duration,0.109,Auditory,0.5,Auditory,0.391,1,0.638,High_Tone,2
Human,114,4,1,189,Auditory,TOJ,Adaptive,Duration,0.109,Auditory,0.5,Auditory,0.391,1,1.003,High_Tone,2
Human,114,4,1,190,Auditory,TOJ,Adaptive,Duration,0.109,Auditory,0.5,Auditory,0.391,1,1.146,High_Tone,2
Human,114,4,1,191,Auditory,TOJ,Adaptive,Duration,0.109,Auditory,0.5,Auditory,0.391,1,0.31,Low_Tone,2
Human,114,4,1,192,Auditory,TOJ,Adaptive,Duration,0.145,Auditory,0.5,Auditory,0.355,1,0.47,High_Tone,2
Human,114,4,1,193,Auditory,TOJ,Adaptive,Duration,0.181,Auditory,0.5,Auditory,0.319,1,0.101,High_Tone,2
Human,114,4,1,194,Auditory,TOJ,Adaptive,Duration,0.145,Auditory,0.5,Auditory,0.355,1,0.142,Low_Tone,2
Human,114,4,1,195,Auditory,TOJ,Adaptive,Duration,0.109,Auditory,0.5,Auditory,0.391,1,0.205,Low_Tone,2
Human,114,4,1,196,Auditory,TOJ,Adaptive,Duration,0.181,Auditory,0.5,Auditory,0.319,1,1.064,High_Tone,2
Human,114,4,1,197,Auditory,TOJ,Adaptive,Duration,0.181,Auditory,0.5,Auditory,0.319,1,0.017,High_Tone,2
Human,114,4,1,198,Auditory,TOJ,Adaptive,Duration,0.181,Auditory,0.5,Auditory,0.319,1,0.082,Low_Tone,2
Human,114,4,1,199,Auditory,TOJ,Adaptive,Duration,0.181,Auditory,0.5,Auditory,0.319,1,0.103,Low_Tone,2
Human,114,4,1,200,Auditory,TOJ,Adaptive,Duration,0.145,Auditory,0.5,Auditory,0.355,1,0.588,High_Tone,2
Human,114,4,1,201,Auditory,TOJ,Adaptive,Duration,0.181,Auditory,0.5,Auditory,0.319,1,0.215,Low_Tone,2
Human,114,4,1,202,Auditory,TOJ,Adaptive,Duration,0.181,Auditory,0.5,Auditory,0.319,1,0.765,Low_Tone,2
Human,114,4,1,203,Auditory,TOJ,Adaptive,Duration,0.181,Auditory,0.5,Auditory,0.319,1,0.09,Low_Tone,2
Human,114,4,1,204,Auditory,TOJ,Adaptive,Duration,0.109,Auditory,0.5,Auditory,0.391,1,0.094,Low_Tone,2
Human,114,4,1,205,Auditory,TOJ,Adaptive,Duration,0.109,Auditory,0.5,Auditory,0.391,1,0.553,Low_Tone,2
Human,114,4,1,206,Auditory,TOJ,Adaptive,Duration,0.145,Auditory,0.5,Auditory,0.355,1,0.758,High_Tone,2
Human,114,4,1,207,Auditory,TOJ,Adaptive,Duration,0.181,Auditory,0.5,Auditory,0.319,2,1.016,High_Tone,2
Human,114,4,1,208,Auditory,TOJ,Adaptive,Duration,0.145,Auditory,0.5,Auditory,0.355,1,0.118,Low_Tone,2
Human,114,4,1,209,Auditory,TOJ,Adaptive,Duration,0.109,Auditory,0.5,Auditory,0.391,1,0.215,High_Tone,2
Human,114,4,1,210,Auditory,TOJ,Adaptive,Duration,0.145,Auditory,0.5,Auditory,0.355,1,0.096,High_Tone,2
Human,114,4,1,211,Auditory,TOJ,Adaptive,Duration,0.109,Auditory,0.5,Auditory,0.391,1,0.123,High_Tone,3
Human,114,4,1,212,Auditory,TOJ,Adaptive,Duration,0.181,Auditory,0.5,Auditory,0.319,1,0.703,High_Tone,3
Human,114,4,1,213,Auditory,TOJ,Adaptive,Duration,0.181,Auditory,0.5,Auditory,0.319,1,0.498,High_Tone,3
Human,114,4,1,214,Auditory,TOJ,Adaptive,Duration,0.181,Auditory,0.5,Auditory,0.319,1,0.054,Low_Tone,3
Human,114,4,1,215,Auditory,TOJ,Adaptive,Duration,0.145,Auditory,0.5,Auditory,0.355,1,0.083,Low_Tone,3
Human,114,4,1,216,Auditory,TOJ,Adaptive,Duration,0.181,Auditory,0.5,Auditory,0.319,1,0.041,Low_Tone,3
Human,114,4,1,217,Auditory,TOJ,Adaptive,Duration,0.109,Auditory,0.5,Auditory,0.391,1,0.65,High_Tone,3
Human,114,4,1,218,Auditory,TOJ,Adaptive,Duration,0.181,Auditory,0.5,Auditory,0.319,1,0.048,High_Tone,3
