Species,Subj_idx,Session,Block,Trial,Stim,Procedure,Method,Parameter,SOA,Stim_Type_1,Stim_Dur_1,Stim_Type_2,Stim_Dur_2,Accuracy,Reaction_Time,Condition
Human,1,1,1,1,Auditory,TOJ,Adaptive,Duration,0.3,Auditory,0.7,Auditory,1,0,N/A,Filled
Human,1,1,1,2,Auditory,TOJ,Adaptive,Duration,0.345,Auditory,1.045,Auditory,0.7,1,N/A,Filled
Human,1,1,1,3,Auditory,TOJ,Adaptive,Duration,0.33,Auditory,1.03,Auditory,0.7,1,N/A,Filled
Human,1,1,1,4,Auditory,TOJ,Adaptive,Duration,0.315,Auditory,1.015,Auditory,0.7,1,N/A,Filled
Human,1,1,1,5,Auditory,TOJ,Adaptive,Duration,0.3,Auditory,0.7,Auditory,1,0,N/A,Filled
Human,1,1,1,6,Auditory,TOJ,Adaptive,Duration,0.285,Auditory,0.7,Auditory,0.985,1,N/A,Filled
Human,1,1,1,7,Auditory,TOJ,Adaptive,Duration,0.27,Auditory,0.7,Auditory,0.97,1,N/A,Filled
Human,1,1,1,8,Auditory,TOJ,Adaptive,Duration,0.255,Auditory,0.7,Auditory,0.955,1,N/A,Filled
Human,1,1,1,9,Auditory,TOJ,Adaptive,Duration,0.24,Auditory,0.94,Auditory,0.7,0,N/A,Filled
Human,1,1,1,10,Auditory,TOJ,Adaptive,Duration,0.225,Auditory,0.7,Auditory,0.925,0,N/A,Filled
Human,1,1,1,11,Auditory,TOJ,Adaptive,Duration,0.27,Auditory,0.97,Auditory,0.7,1,N/A,Filled
Human,1,1,1,12,Auditory,TOJ,Adaptive,Duration,0.255,Auditory,0.7,Auditory,0.955,0,N/A,Filled
Human,1,1,1,13,Auditory,TOJ,Adaptive,Duration,0.3,Auditory,0.7,Auditory,1,0,N/A,Filled
Human,1,1,1,14,Auditory,TOJ,Adaptive,Duration,0.285,Auditory,0.985,Auditory,0.7,0,N/A,Filled
Human,1,1,1,15,Auditory,TOJ,Adaptive,Duration,0.27,Auditory,0.97,Auditory,0.7,1,N/A,Filled
Human,1,1,1,16,Auditory,TOJ,Adaptive,Duration,0.255,Auditory,0.955,Auditory,0.7,1,N/A,Filled
Human,1,1,1,17,Auditory,TOJ,Adaptive,Duration,0.3,Auditory,1,Auditory,0.7,0,N/A,Filled
Human,1,1,1,18,Auditory,TOJ,Adaptive,Duration,0.285,Auditory,0.985,Auditory,0.7,1,N/A,Filled
Human,1,1,1,19,Auditory,TOJ,Adaptive,Duration,0.27,Auditory,0.97,Auditory,0.7,1,N/A,Filled
Human,1,1,1,20,Auditory,TOJ,Adaptive,Duration,0.255,Auditory,0.7,Auditory,0.955,0,N/A,Filled
Human,1,1,1,21,Auditory,TOJ,Adaptive,Duration,0.24,Auditory,0.94,Auditory,0.7,0,N/A,Filled
Human,1,1,1,22,Auditory,TOJ,Adaptive,Duration,0.225,Auditory,0.925,Auditory,0.7,1,N/A,Filled
Human,1,1,1,23,Auditory,TOJ,Adaptive,Duration,0.27,Auditory,0.97,Auditory,0.7,0,N/A,Filled
Human,1,1,1,24,Auditory,TOJ,Adaptive,Duration,0.255,Auditory,0.955,Auditory,0.7,1,N/A,Filled
Human,1,1,1,25,Auditory,TOJ,Adaptive,Duration,0.3,Auditory,0.7,Auditory,1,1,N/A,Filled
Human,1,1,1,26,Auditory,TOJ,Adaptive,Duration,0.285,Auditory,0.985,Auditory,0.7,0,N/A,Filled
Human,1,1,1,27,Auditory,TOJ,Adaptive,Duration,0.27,Auditory,0.7,Auditory,0.97,0,N/A,Filled
Human,1,1,1,28,Auditory,TOJ,Adaptive,Duration,0.315,Auditory,0.7,Auditory,1.015,0,N/A,Filled
Human,1,1,1,29,Auditory,TOJ,Adaptive,Duration,0.3,Auditory,0.7,Auditory,1,1,N/A,Filled
Human,1,1,1,30,Auditory,TOJ,Adaptive,Duration,0.285,Auditory,0.7,Auditory,0.985,1,N/A,Filled
Human,1,1,1,31,Auditory,TOJ,Adaptive,Duration,0.275,Auditory,0.975,Auditory,0.7,0,N/A,Filled
Human,1,1,1,32,Auditory,TOJ,Adaptive,Duration,0.305,Auditory,1.005,Auditory,0.7,0,N/A,Filled
Human,1,1,1,33,Auditory,TOJ,Adaptive,Duration,0.295,Auditory,0.995,Auditory,0.7,1,N/A,Filled
Human,1,1,1,34,Auditory,TOJ,Adaptive,Duration,0.285,Auditory,0.7,Auditory,0.985,0,N/A,Filled
Human,1,1,1,35,Auditory,TOJ,Adaptive,Duration,0.275,Auditory,0.975,Auditory,0.7,0,N/A,Filled
Human,1,1,1,36,Auditory,TOJ,Adaptive,Duration,0.265,Auditory,0.7,Auditory,0.965,0,N/A,Filled
Human,1,1,1,37,Auditory,TOJ,Adaptive,Duration,0.255,Auditory,0.7,Auditory,0.955,1,N/A,Filled
Human,1,1,1,38,Auditory,TOJ,Adaptive,Duration,0.285,Auditory,0.7,Auditory,0.985,0,N/A,Filled
Human,1,1,1,39,Auditory,TOJ,Adaptive,Duration,0.275,Auditory,0.975,Auditory,0.7,0,N/A,Filled
Human,1,1,1,40,Auditory,TOJ,Adaptive,Duration,0.265,Auditory,0.965,Auditory,0.7,1,N/A,Filled
Human,1,1,1,41,Auditory,TOJ,Adaptive,Duration,0.295,Auditory,0.7,Auditory,0.995,1,N/A,Filled
Human,1,1,1,42,Auditory,TOJ,Adaptive,Duration,0.325,Auditory,0.7,Auditory,1.025,0,N/A,Filled
Human,1,1,1,43,Auditory,TOJ,Adaptive,Duration,0.315,Auditory,0.7,Auditory,1.015,1,N/A,Filled
Human,1,1,1,44,Auditory,TOJ,Adaptive,Duration,0.305,Auditory,0.7,Auditory,1.005,1,N/A,Filled
Human,1,1,1,45,Auditory,TOJ,Adaptive,Duration,0.295,Auditory,0.7,Auditory,0.995,1,N/A,Filled
Human,1,1,1,46,Auditory,TOJ,Adaptive,Duration,0.285,Auditory,0.7,Auditory,0.985,1,N/A,Filled
Human,1,1,1,47,Auditory,TOJ,Adaptive,Duration,0.275,Auditory,0.7,Auditory,0.975,1,N/A,Filled
Human,1,1,1,48,Auditory,TOJ,Adaptive,Duration,0.305,Auditory,0.7,Auditory,1.005,0,N/A,Filled
Human,1,1,1,49,Auditory,TOJ,Adaptive,Duration,0.295,Auditory,0.995,Auditory,0.7,0,N/A,Filled
Human,1,1,1,50,Auditory,TOJ,Adaptive,Duration,0.285,Auditory,0.985,Auditory,0.7,1,N/A,Filled
Human,2,1,1,1,Auditory,TOJ,Adaptive,Duration,0.3,Auditory,0.7,Auditory,1,0,N/A,Filled
Human,2,1,1,2,Auditory,TOJ,Adaptive,Duration,0.285,Auditory,0.7,Auditory,0.985,1,N/A,Filled
Human,2,1,1,3,Auditory,TOJ,Adaptive,Duration,0.27,Auditory,0.7,Auditory,0.97,1,N/A,Filled
Human,2,1,1,4,Auditory,TOJ,Adaptive,Duration,0.315,Auditory,1.015,Auditory,0.7,1,N/A,Filled
Human,2,1,1,5,Auditory,TOJ,Adaptive,Duration,0.3,Auditory,0.7,Auditory,1,0,N/A,Filled
Human,2,1,1,6,Auditory,TOJ,Adaptive,Duration,0.285,Auditory,0.985,Auditory,0.7,0,N/A,Filled
Human,2,1,1,7,Auditory,TOJ,Adaptive,Duration,0.27,Auditory,0.97,Auditory,0.7,1,N/A,Filled
Human,2,1,1,8,Auditory,TOJ,Adaptive,Duration,0.255,Auditory,0.955,Auditory,0.7,1,N/A,Filled
Human,2,1,1,9,Auditory,TOJ,Adaptive,Duration,0.24,Auditory,0.7,Auditory,0.94,0,N/A,Filled
Human,2,1,1,10,Auditory,TOJ,Adaptive,Duration,0.225,Auditory,0.925,Auditory,0.7,0,N/A,Filled
Human,2,1,1,11,Auditory,TOJ,Adaptive,Duration,0.21,Auditory,0.91,Auditory,0.7,1,N/A,Filled
Human,2,1,1,12,Auditory,TOJ,Adaptive,Duration,0.195,Auditory,0.7,Auditory,0.895,0,N/A,Filled
Human,2,1,1,13,Auditory,TOJ,Adaptive,Duration,0.18,Auditory,0.7,Auditory,0.88,1,N/A,Filled
Human,2,1,1,14,Auditory,TOJ,Adaptive,Duration,0.165,Auditory,0.865,Auditory,0.7,0,N/A,Filled
Human,2,1,1,15,Auditory,TOJ,Adaptive,Duration,0.15,Auditory,0.85,Auditory,0.7,1,N/A,Filled
Human,2,1,1,16,Auditory,TOJ,Adaptive,Duration,0.135,Auditory,0.835,Auditory,0.7,1,N/A,Filled
Human,2,1,1,17,Auditory,TOJ,Adaptive,Duration,0.18,Auditory,0.7,Auditory,0.88,1,N/A,Filled
Human,2,1,1,18,Auditory,TOJ,Adaptive,Duration,0.165,Auditory,0.865,Auditory,0.7,0,N/A,Filled
Human,2,1,1,19,Auditory,TOJ,Adaptive,Duration,0.15,Auditory,0.7,Auditory,0.85,0,N/A,Filled
Human,2,1,1,20,Auditory,TOJ,Adaptive,Duration,0.135,Auditory,0.7,Auditory,0.835,1,N/A,Filled
Human,2,1,1,21,Auditory,TOJ,Adaptive,Duration,0.12,Auditory,0.82,Auditory,0.7,0,N/A,Filled
Human,2,1,1,22,Auditory,TOJ,Adaptive,Duration,0.105,Auditory,0.7,Auditory,0.805,0,N/A,Filled
Human,2,1,1,23,Auditory,TOJ,Adaptive,Duration,0.09,Auditory,0.79,Auditory,0.7,0,N/A,Filled
Human,2,1,1,24,Auditory,TOJ,Adaptive,Duration,0.075,Auditory,0.7,Auditory,0.775,0,N/A,Filled
Human,2,1,1,25,Auditory,TOJ,Adaptive,Duration,0.06,Auditory,0.7,Auditory,0.76,1,N/A,Filled
Human,2,1,1,26,Auditory,TOJ,Adaptive,Duration,0.045,Auditory,0.745,Auditory,0.7,0,N/A,Filled
Human,2,1,1,27,Auditory,TOJ,Adaptive,Duration,0.03,Auditory,0.73,Auditory,0.7,1,N/A,Filled
Human,2,1,1,28,Auditory,TOJ,Adaptive,Duration,0.015,Auditory,0.7,Auditory,0.715,0,N/A,Filled
Human,2,1,1,29,Auditory,TOJ,Adaptive,Duration,0.015,Auditory,0.7,Auditory,0.715,1,N/A,Filled
Human,2,1,1,30,Auditory,TOJ,Adaptive,Duration,0.015,Auditory,0.7,Auditory,0.715,1,N/A,Filled
Human,2,1,1,31,Auditory,TOJ,Adaptive,Duration,0.005,Auditory,0.7,Auditory,0.705,1,N/A,Filled
Human,2,1,1,32,Auditory,TOJ,Adaptive,Duration,0.035,Auditory,0.7,Auditory,0.735,0,N/A,Filled
Human,2,1,1,33,Auditory,TOJ,Adaptive,Duration,0.025,Auditory,0.725,Auditory,0.7,0,N/A,Filled
Human,2,1,1,34,Auditory,TOJ,Adaptive,Duration,0.055,Auditory,0.755,Auditory,0.7,0,N/A,Filled
Human,2,1,1,35,Auditory,TOJ,Adaptive,Duration,0.085,Auditory,0.785,Auditory,0.7,0,N/A,Filled
Human,2,1,1,36,Auditory,TOJ,Adaptive,Duration,0.075,Auditory,0.775,Auditory,0.7,1,N/A,Filled
Human,2,1,1,37,Auditory,TOJ,Adaptive,Duration,0.105,Auditory,0.7,Auditory,0.805,1,N/A,Filled
Human,2,1,1,38,Auditory,TOJ,Adaptive,Duration,0.135,Auditory,0.7,Auditory,0.835,0,N/A,Filled
Human,2,1,1,39,Auditory,TOJ,Adaptive,Duration,0.125,Auditory,0.825,Auditory,0.7,0,N/A,Filled
Human,2,1,1,40,Auditory,TOJ,Adaptive,Duration,0.115,Auditory,0.815,Auditory,0.7,1,N/A,Filled
Human,2,1,1,41,Auditory,TOJ,Adaptive,Duration,0.105,Auditory,0.805,Auditory,0.7,1,N/A,Filled
Human,2,1,1,42,Auditory,TOJ,Adaptive,Duration,0.135,Auditory,0.835,Auditory,0.7,0,N/A,Filled
Human,2,1,1,43,Auditory,TOJ,Adaptive,Duration,0.125,Auditory,0.7,Auditory,0.825,0,N/A,Filled
Human,2,1,1,44,Auditory,TOJ,Adaptive,Duration,0.155,Auditory,0.855,Auditory,0.7,1,N/A,Filled
Human,2,1,1,45,Auditory,TOJ,Adaptive,Duration,0.145,Auditory,0.845,Auditory,0.7,1,N/A,Filled
Human,2,1,1,46,Auditory,TOJ,Adaptive,Duration,0.175,Auditory,0.7,Auditory,0.875,1,N/A,Filled
Human,2,1,1,47,Auditory,TOJ,Adaptive,Duration,0.165,Auditory,0.7,Auditory,0.865,1,N/A,Filled
Human,2,1,1,48,Auditory,TOJ,Adaptive,Duration,0.195,Auditory,0.7,Auditory,0.895,0,N/A,Filled
Human,2,1,1,49,Auditory,TOJ,Adaptive,Duration,0.185,Auditory,0.7,Auditory,0.885,1,N/A,Filled
Human,2,1,1,50,Auditory,TOJ,Adaptive,Duration,0.175,Auditory,0.7,Auditory,0.875,1,N/A,Filled
Human,3,1,1,1,Auditory,TOJ,Adaptive,Duration,0.3,Auditory,0.7,Auditory,1,0,N/A,Filled
Human,3,1,1,2,Auditory,TOJ,Adaptive,Duration,0.285,Auditory,0.985,Auditory,0.7,0,N/A,Filled
Human,3,1,1,3,Auditory,TOJ,Adaptive,Duration,0.27,Auditory,0.7,Auditory,0.97,0,N/A,Filled
Human,3,1,1,4,Auditory,TOJ,Adaptive,Duration,0.255,Auditory,0.7,Auditory,0.955,1,N/A,Filled
Human,3,1,1,5,Auditory,TOJ,Adaptive,Duration,0.24,Auditory,0.7,Auditory,0.94,1,N/A,Filled
Human,3,1,1,6,Auditory,TOJ,Adaptive,Duration,0.225,Auditory,0.7,Auditory,0.925,1,N/A,Filled
Human,3,1,1,7,Auditory,TOJ,Adaptive,Duration,0.21,Auditory,0.7,Auditory,0.91,1,N/A,Filled
Human,3,1,1,8,Auditory,TOJ,Adaptive,Duration,0.195,Auditory,0.895,Auditory,0.7,0,N/A,Filled
Human,3,1,1,9,Auditory,TOJ,Adaptive,Duration,0.18,Auditory,0.88,Auditory,0.7,1,N/A,Filled
Human,3,1,1,10,Auditory,TOJ,Adaptive,Duration,0.165,Auditory,0.7,Auditory,0.865,0,N/A,Filled
Human,3,1,1,11,Auditory,TOJ,Adaptive,Duration,0.15,Auditory,0.7,Auditory,0.85,1,N/A,Filled
Human,3,1,1,12,Auditory,TOJ,Adaptive,Duration,0.135,Auditory,0.835,Auditory,0.7,0,N/A,Filled
Human,3,1,1,13,Auditory,TOJ,Adaptive,Duration,0.12,Auditory,0.82,Auditory,0.7,1,N/A,Filled
Human,3,1,1,14,Auditory,TOJ,Adaptive,Duration,0.105,Auditory,0.7,Auditory,0.805,0,N/A,Filled
Human,3,1,1,15,Auditory,TOJ,Adaptive,Duration,0.09,Auditory,0.7,Auditory,0.79,1,N/A,Filled
Human,3,1,1,16,Auditory,TOJ,Adaptive,Duration,0.135,Auditory,0.835,Auditory,0.7,1,N/A,Filled
Human,3,1,1,17,Auditory,TOJ,Adaptive,Duration,0.12,Auditory,0.82,Auditory,0.7,1,N/A,Filled
Human,3,1,1,18,Auditory,TOJ,Adaptive,Duration,0.165,Auditory,0.865,Auditory,0.7,0,N/A,Filled
Human,3,1,1,19,Auditory,TOJ,Adaptive,Duration,0.15,Auditory,0.7,Auditory,0.85,0,N/A,Filled
Human,3,1,1,20,Auditory,TOJ,Adaptive,Duration,0.135,Auditory,0.7,Auditory,0.835,1,N/A,Filled
Human,3,1,1,21,Auditory,TOJ,Adaptive,Duration,0.12,Auditory,0.7,Auditory,0.82,1,N/A,Filled
Human,3,1,1,22,Auditory,TOJ,Adaptive,Duration,0.105,Auditory,0.805,Auditory,0.7,0,N/A,Filled
Human,3,1,1,23,Auditory,TOJ,Adaptive,Duration,0.09,Auditory,0.79,Auditory,0.7,1,N/A,Filled
Human,3,1,1,24,Auditory,TOJ,Adaptive,Duration,0.135,Auditory,0.7,Auditory,0.835,1,N/A,Filled
Human,3,1,1,25,Auditory,TOJ,Adaptive,Duration,0.18,Auditory,0.7,Auditory,0.88,0,N/A,Filled
Human,3,1,1,26,Auditory,TOJ,Adaptive,Duration,0.165,Auditory,0.865,Auditory,0.7,0,N/A,Filled
Human,3,1,1,27,Auditory,TOJ,Adaptive,Duration,0.21,Auditory,0.7,Auditory,0.91,1,N/A,Filled
Human,3,1,1,28,Auditory,TOJ,Adaptive,Duration,0.195,Auditory,0.895,Auditory,0.7,0,N/A,Filled
Human,3,1,1,29,Auditory,TOJ,Adaptive,Duration,0.18,Auditory,0.88,Auditory,0.7,1,N/A,Filled
Human,3,1,1,30,Auditory,TOJ,Adaptive,Duration,0.165,Auditory,0.865,Auditory,0.7,1,N/A,Filled
Human,3,1,1,31,Auditory,TOJ,Adaptive,Duration,0.155,Auditory,0.855,Auditory,0.7,1,N/A,Filled
Human,3,1,1,32,Auditory,TOJ,Adaptive,Duration,0.145,Auditory,0.845,Auditory,0.7,1,N/A,Filled
Human,3,1,1,33,Auditory,TOJ,Adaptive,Duration,0.135,Auditory,0.7,Auditory,0.835,0,N/A,Filled
Human,3,1,1,34,Auditory,TOJ,Adaptive,Duration,0.125,Auditory,0.7,Auditory,0.825,1,N/A,Filled
Human,3,1,1,35,Auditory,TOJ,Adaptive,Duration,0.115,Auditory,0.7,Auditory,0.815,1,N/A,Filled
Human,3,1,1,36,Auditory,TOJ,Adaptive,Duration,0.105,Auditory,0.7,Auditory,0.805,1,N/A,Filled
Human,3,1,1,37,Auditory,TOJ,Adaptive,Duration,0.095,Auditory,0.795,Auditory,0.7,0,N/A,Filled
Human,3,1,1,38,Auditory,TOJ,Adaptive,Duration,0.085,Auditory,0.785,Auditory,0.7,1,N/A,Filled
Human,3,1,1,39,Auditory,TOJ,Adaptive,Duration,0.075,Auditory,0.775,Auditory,0.7,1,N/A,Filled
Human,3,1,1,40,Auditory,TOJ,Adaptive,Duration,0.065,Auditory,0.765,Auditory,0.7,1,N/A,Filled
Human,3,1,1,41,Auditory,TOJ,Adaptive,Duration,0.055,Auditory,0.7,Auditory,0.755,0,N/A,Filled
Human,3,1,1,42,Auditory,TOJ,Adaptive,Duration,0.085,Auditory,0.7,Auditory,0.785,0,N/A,Filled
Human,3,1,1,43,Auditory,TOJ,Adaptive,Duration,0.075,Auditory,0.7,Auditory,0.775,1,N/A,Filled
Human,3,1,1,44,Auditory,TOJ,Adaptive,Duration,0.065,Auditory,0.7,Auditory,0.765,1,N/A,Filled
Human,3,1,1,45,Auditory,TOJ,Adaptive,Duration,0.055,Auditory,0.7,Auditory,0.755,1,N/A,Filled
Human,3,1,1,46,Auditory,TOJ,Adaptive,Duration,0.045,Auditory,0.7,Auditory,0.745,1,N/A,Filled
Human,3,1,1,47,Auditory,TOJ,Adaptive,Duration,0.035,Auditory,0.7,Auditory,0.735,1,N/A,Filled
Human,3,1,1,48,Auditory,TOJ,Adaptive,Duration,0.025,Auditory,0.7,Auditory,0.725,1,N/A,Filled
Human,3,1,1,49,Auditory,TOJ,Adaptive,Duration,0.015,Auditory,0.715,Auditory,0.7,0,N/A,Filled
Human,3,1,1,50,Auditory,TOJ,Adaptive,Duration,0.005,Auditory,0.705,Auditory,0.7,1,N/A,Filled
Human,4,1,1,1,Auditory,TOJ,Adaptive,Duration,0.3,Auditory,0.7,Auditory,1,0,N/A,Filled
Human,4,1,1,2,Auditory,TOJ,Adaptive,Duration,0.285,Auditory,0.7,Auditory,0.985,1,N/A,Filled
Human,4,1,1,3,Auditory,TOJ,Adaptive,Duration,0.27,Auditory,0.97,Auditory,0.7,0,N/A,Filled
Human,4,1,1,4,Auditory,TOJ,Adaptive,Duration,0.255,Auditory,0.7,Auditory,0.955,0,N/A,Filled
Human,4,1,1,5,Auditory,TOJ,Adaptive,Duration,0.3,Auditory,1,Auditory,0.7,1,N/A,Filled
Human,4,1,1,6,Auditory,TOJ,Adaptive,Duration,0.285,Auditory,0.7,Auditory,0.985,0,N/A,Filled
Human,4,1,1,7,Auditory,TOJ,Adaptive,Duration,0.27,Auditory,0.97,Auditory,0.7,0,N/A,Filled
Human,4,1,1,8,Auditory,TOJ,Adaptive,Duration,0.315,Auditory,1.015,Auditory,0.7,0,N/A,Filled
Human,4,1,1,9,Auditory,TOJ,Adaptive,Duration,0.3,Auditory,0.7,Auditory,1,0,N/A,Filled
Human,4,1,1,10,Auditory,TOJ,Adaptive,Duration,0.285,Auditory,0.7,Auditory,0.985,1,N/A,Filled
Human,4,1,1,11,Auditory,TOJ,Adaptive,Duration,0.27,Auditory,0.7,Auditory,0.97,1,N/A,Filled
Human,4,1,1,12,Auditory,TOJ,Adaptive,Duration,0.255,Auditory,0.955,Auditory,0.7,0,N/A,Filled
Human,4,1,1,13,Auditory,TOJ,Adaptive,Duration,0.3,Auditory,0.7,Auditory,1,1,N/A,Filled
Human,4,1,1,14,Auditory,TOJ,Adaptive,Duration,0.285,Auditory,0.985,Auditory,0.7,0,N/A,Filled
Human,4,1,1,15,Auditory,TOJ,Adaptive,Duration,0.27,Auditory,0.97,Auditory,0.7,1,N/A,Filled
Human,4,1,1,16,Auditory,TOJ,Adaptive,Duration,0.255,Auditory,0.955,Auditory,0.7,1,N/A,Filled
Human,4,1,1,17,Auditory,TOJ,Adaptive,Duration,0.24,Auditory,0.7,Auditory,0.94,0,N/A,Filled
Human,4,1,1,18,Auditory,TOJ,Adaptive,Duration,0.225,Auditory,0.7,Auditory,0.925,1,N/A,Filled
Human,4,1,1,19,Auditory,TOJ,Adaptive,Duration,0.21,Auditory,0.91,Auditory,0.7,0,N/A,Filled
Human,4,1,1,20,Auditory,TOJ,Adaptive,Duration,0.195,Auditory,0.895,Auditory,0.7,1,N/A,Filled
Human,4,1,1,21,Auditory,TOJ,Adaptive,Duration,0.18,Auditory,0.88,Auditory,0.7,1,N/A,Filled
Human,4,1,1,22,Auditory,TOJ,Adaptive,Duration,0.165,Auditory,0.865,Auditory,0.7,1,N/A,Filled
Human,4,1,1,23,Auditory,TOJ,Adaptive,Duration,0.21,Auditory,0.91,Auditory,0.7,0,N/A,Filled
Human,4,1,1,24,Auditory,TOJ,Adaptive,Duration,0.195,Auditory,0.895,Auditory,0.7,1,N/A,Filled
Human,4,1,1,25,Auditory,TOJ,Adaptive,Duration,0.18,Auditory,0.88,Auditory,0.7,1,N/A,Filled
Human,4,1,1,26,Auditory,TOJ,Adaptive,Duration,0.225,Auditory,0.7,Auditory,0.925,1,N/A,Filled
Human,4,1,1,27,Auditory,TOJ,Adaptive,Duration,0.21,Auditory,0.91,Auditory,0.7,0,N/A,Filled
Human,4,1,1,28,Auditory,TOJ,Adaptive,Duration,0.255,Auditory,0.7,Auditory,0.955,1,N/A,Filled
Human,4,1,1,29,Auditory,TOJ,Adaptive,Duration,0.24,Auditory,0.94,Auditory,0.7,0,N/A,Filled
Human,4,1,1,30,Auditory,TOJ,Adaptive,Duration,0.225,Auditory,0.7,Auditory,0.925,0,N/A,Filled
Human,4,1,1,31,Auditory,TOJ,Adaptive,Duration,0.215,Auditory,0.915,Auditory,0.7,0,N/A,Filled
Human,4,1,1,32,Auditory,TOJ,Adaptive,Duration,0.205,Auditory,0.7,Auditory,0.905,0,N/A,Filled
Human,4,1,1,33,Auditory,TOJ,Adaptive,Duration,0.195,Auditory,0.895,Auditory,0.7,0,N/A,Filled
Human,4,1,1,34,Auditory,TOJ,Adaptive,Duration,0.185,Auditory,0.885,Auditory,0.7,1,N/A,Filled
Human,4,1,1,35,Auditory,TOJ,Adaptive,Duration,0.175,Auditory,0.7,Auditory,0.875,0,N/A,Filled
Human,4,1,1,36,Auditory,TOJ,Adaptive,Duration,0.165,Auditory,0.865,Auditory,0.7,0,N/A,Filled
Human,4,1,1,37,Auditory,TOJ,Adaptive,Duration,0.195,Auditory,0.7,Auditory,0.895,1,N/A,Filled
Human,4,1,1,38,Auditory,TOJ,Adaptive,Duration,0.185,Auditory,0.885,Auditory,0.7,0,N/A,Filled
Human,4,1,1,39,Auditory,TOJ,Adaptive,Duration,0.175,Auditory,0.875,Auditory,0.7,1,N/A,Filled
Human,4,1,1,40,Auditory,TOJ,Adaptive,Duration,0.165,Auditory,0.7,Auditory,0.865,0,N/A,Filled
Human,4,1,1,41,Auditory,TOJ,Adaptive,Duration,0.155,Auditory,0.855,Auditory,0.7,0,N/A,Filled
Human,4,1,1,42,Auditory,TOJ,Adaptive,Duration,0.145,Auditory,0.845,Auditory,0.7,1,N/A,Filled
Human,4,1,1,43,Auditory,TOJ,Adaptive,Duration,0.135,Auditory,0.7,Auditory,0.835,0,N/A,Filled
Human,4,1,1,44,Auditory,TOJ,Adaptive,Duration,0.165,Auditory,0.865,Auditory,0.7,1,N/A,Filled
Human,4,1,1,45,Auditory,TOJ,Adaptive,Duration,0.195,Auditory,0.7,Auditory,0.895,1,N/A,Filled
Human,4,1,1,46,Auditory,TOJ,Adaptive,Duration,0.185,Auditory,0.885,Auditory,0.7,0,N/A,Filled
Human,4,1,1,47,Auditory,TOJ,Adaptive,Duration,0.175,Auditory,0.875,Auditory,0.7,1,N/A,Filled
Human,4,1,1,48,Auditory,TOJ,Adaptive,Duration,0.165,Auditory,0.7,Auditory,0.865,0,N/A,Filled
Human,4,1,1,49,Auditory,TOJ,Adaptive,Duration,0.155,Auditory,0.855,Auditory,0.7,0,N/A,Filled
Human,4,1,1,50,Auditory,TOJ,Adaptive,Duration,0.145,Auditory,0.845,Auditory,0.7,1,N/A,Filled
Human,5,1,1,1,Auditory,TOJ,Adaptive,Duration,0.3,Auditory,0.7,Auditory,1,0,N/A,Filled
Human,5,1,1,2,Auditory,TOJ,Adaptive,Duration,0.285,Auditory,0.985,Auditory,0.7,0,N/A,Filled
Human,5,1,1,3,Auditory,TOJ,Adaptive,Duration,0.27,Auditory,0.97,Auditory,0.7,1,N/A,Filled
Human,5,1,1,4,Auditory,TOJ,Adaptive,Duration,0.255,Auditory,0.955,Auditory,0.7,1,N/A,Filled
Human,5,1,1,5,Auditory,TOJ,Adaptive,Duration,0.24,Auditory,0.7,Auditory,0.94,0,N/A,Filled
Human,5,1,1,6,Auditory,TOJ,Adaptive,Duration,0.225,Auditory,0.925,Auditory,0.7,0,N/A,Filled
Human,5,1,1,7,Auditory,TOJ,Adaptive,Duration,0.21,Auditory,0.7,Auditory,0.91,0,N/A,Filled
Human,5,1,1,8,Auditory,TOJ,Adaptive,Duration,0.195,Auditory,0.7,Auditory,0.895,1,N/A,Filled
Human,5,1,1,9,Auditory,TOJ,Adaptive,Duration,0.24,Auditory,0.94,Auditory,0.7,1,N/A,Filled
Human,5,1,1,10,Auditory,TOJ,Adaptive,Duration,0.225,Auditory,0.7,Auditory,0.925,0,N/A,Filled
Human,5,1,1,11,Auditory,TOJ,Adaptive,Duration,0.21,Auditory,0.91,Auditory,0.7,0,N/A,Filled
Human,5,1,1,12,Auditory,TOJ,Adaptive,Duration,0.195,Auditory,0.7,Auditory,0.895,0,N/A,Filled
Human,5,1,1,13,Auditory,TOJ,Adaptive,Duration,0.18,Auditory,0.88,Auditory,0.7,0,N/A,Filled
Human,5,1,1,14,Auditory,TOJ,Adaptive,Duration,0.165,Auditory,0.865,Auditory,0.7,1,N/A,Filled
Human,5,1,1,15,Auditory,TOJ,Adaptive,Duration,0.15,Auditory,0.85,Auditory,0.7,1,N/A,Filled
Human,5,1,1,16,Auditory,TOJ,Adaptive,Duration,0.135,Auditory,0.7,Auditory,0.835,0,N/A,Filled
Human,5,1,1,17,Auditory,TOJ,Adaptive,Duration,0.12,Auditory,0.82,Auditory,0.7,0,N/A,Filled
Human,5,1,1,18,Auditory,TOJ,Adaptive,Duration,0.105,Auditory,0.7,Auditory,0.805,0,N/A,Filled
Human,5,1,1,19,Auditory,TOJ,Adaptive,Duration,0.15,Auditory,0.7,Auditory,0.85,0,N/A,Filled
Human,5,1,1,20,Auditory,TOJ,Adaptive,Duration,0.135,Auditory,0.835,Auditory,0.7,0,N/A,Filled
Human,5,1,1,21,Auditory,TOJ,Adaptive,Duration,0.12,Auditory,0.82,Auditory,0.7,1,N/A,Filled
Human,5,1,1,22,Auditory,TOJ,Adaptive,Duration,0.105,Auditory,0.7,Auditory,0.805,0,N/A,Filled
Human,5,1,1,23,Auditory,TOJ,Adaptive,Duration,0.09,Auditory,0.79,Auditory,0.7,0,N/A,Filled
Human,5,1,1,24,Auditory,TOJ,Adaptive,Duration,0.075,Auditory,0.775,Auditory,0.7,1,N/A,Filled
Human,5,1,1,25,Auditory,TOJ,Adaptive,Duration,0.06,Auditory,0.76,Auditory,0.7,1,N/A,Filled
Human,5,1,1,26,Auditory,TOJ,Adaptive,Duration,0.045,Auditory,0.745,Auditory,0.7,1,N/A,Filled
Human,5,1,1,27,Auditory,TOJ,Adaptive,Duration,0.03,Auditory,0.73,Auditory,0.7,1,N/A,Filled
Human,5,1,1,28,Auditory,TOJ,Adaptive,Duration,0.015,Auditory,0.715,Auditory,0.7,1,N/A,Filled
Human,5,1,1,29,Auditory,TOJ,Adaptive,Duration,0.015,Auditory,0.715,Auditory,0.7,1,N/A,Filled
Human,5,1,1,30,Auditory,TOJ,Adaptive,Duration,0.015,Auditory,0.7,Auditory,0.715,0,N/A,Filled
Human,5,1,1,31,Auditory,TOJ,Adaptive,Duration,0.045,Auditory,0.7,Auditory,0.745,0,N/A,Filled
Human,5,1,1,32,Auditory,TOJ,Adaptive,Duration,0.035,Auditory,0.735,Auditory,0.7,0,N/A,Filled
Human,5,1,1,33,Auditory,TOJ,Adaptive,Duration,0.025,Auditory,0.7,Auditory,0.725,0,N/A,Filled
Human,5,1,1,34,Auditory,TOJ,Adaptive,Duration,0.055,Auditory,0.755,Auditory,0.7,1,N/A,Filled
Human,5,1,1,35,Auditory,TOJ,Adaptive,Duration,0.045,Auditory,0.745,Auditory,0.7,1,N/A,Filled
Human,5,1,1,36,Auditory,TOJ,Adaptive,Duration,0.035,Auditory,0.735,Auditory,0.7,1,N/A,Filled
Human,5,1,1,37,Auditory,TOJ,Adaptive,Duration,0.065,Auditory,0.7,Auditory,0.765,1,N/A,Filled
Human,5,1,1,38,Auditory,TOJ,Adaptive,Duration,0.055,Auditory,0.755,Auditory,0.7,0,N/A,Filled
Human,5,1,1,39,Auditory,TOJ,Adaptive,Duration,0.045,Auditory,0.7,Auditory,0.745,0,N/A,Filled
Human,5,1,1,40,Auditory,TOJ,Adaptive,Duration,0.035,Auditory,0.735,Auditory,0.7,0,N/A,Filled
Human,5,1,1,41,Auditory,TOJ,Adaptive,Duration,0.065,Auditory,0.7,Auditory,0.765,1,N/A,Filled
Human,5,1,1,42,Auditory,TOJ,Adaptive,Duration,0.055,Auditory,0.7,Auditory,0.755,1,N/A,Filled
Human,5,1,1,43,Auditory,TOJ,Adaptive,Duration,0.045,Auditory,0.745,Auditory,0.7,0,N/A,Filled
Human,5,1,1,44,Auditory,TOJ,Adaptive,Duration,0.035,Auditory,0.7,Auditory,0.735,0,N/A,Filled
Human,5,1,1,45,Auditory,TOJ,Adaptive,Duration,0.065,Auditory,0.7,Auditory,0.765,0,N/A,Filled
Human,5,1,1,46,Auditory,TOJ,Adaptive,Duration,0.055,Auditory,0.755,Auditory,0.7,0,N/A,Filled
Human,5,1,1,47,Auditory,TOJ,Adaptive,Duration,0.045,Auditory,0.7,Auditory,0.745,0,N/A,Filled
Human,5,1,1,48,Auditory,TOJ,Adaptive,Duration,0.075,Auditory,0.7,Auditory,0.775,0,N/A,Filled
Human,5,1,1,49,Auditory,TOJ,Adaptive,Duration,0.065,Auditory,0.765,Auditory,0.7,0,N/A,Filled
Human,5,1,1,50,Auditory,TOJ,Adaptive,Duration,0.095,Auditory,0.795,Auditory,0.7,0,N/A,Filled
Human,6,1,1,1,Auditory,TOJ,Adaptive,Duration,0.3,Auditory,1,Auditory,0.7,0,N/A,Filled
Human,6,1,1,2,Auditory,TOJ,Adaptive,Duration,0.345,Auditory,1.045,Auditory,0.7,0,N/A,Filled
Human,6,1,1,3,Auditory,TOJ,Adaptive,Duration,0.33,Auditory,0.7,Auditory,1.03,0,N/A,Filled
Human,6,1,1,4,Auditory,TOJ,Adaptive,Duration,0.315,Auditory,0.7,Auditory,1.015,1,N/A,Filled
Human,6,1,1,5,Auditory,TOJ,Adaptive,Duration,0.36,Auditory,0.7,Auditory,1.06,0,N/A,Filled
Human,6,1,1,6,Auditory,TOJ,Adaptive,Duration,0.345,Auditory,1.045,Auditory,0.7,0,N/A,Filled
Human,6,1,1,7,Auditory,TOJ,Adaptive,Duration,0.33,Auditory,0.7,Auditory,1.03,0,N/A,Filled
Human,6,1,1,8,Auditory,TOJ,Adaptive,Duration,0.315,Auditory,0.7,Auditory,1.015,1,N/A,Filled
Human,6,1,1,9,Auditory,TOJ,Adaptive,Duration,0.3,Auditory,0.7,Auditory,1,1,N/A,Filled
Human,6,1,1,10,Auditory,TOJ,Adaptive,Duration,0.285,Auditory,0.7,Auditory,0.985,1,N/A,Filled
Human,6,1,1,11,Auditory,TOJ,Adaptive,Duration,0.27,Auditory,0.7,Auditory,0.97,1,N/A,Filled
Human,6,1,1,12,Auditory,TOJ,Adaptive,Duration,0.255,Auditory,0.7,Auditory,0.955,1,N/A,Filled
Human,6,1,1,13,Auditory,TOJ,Adaptive,Duration,0.24,Auditory,0.7,Auditory,0.94,1,N/A,Filled
Human,6,1,1,14,Auditory,TOJ,Adaptive,Duration,0.225,Auditory,0.925,Auditory,0.7,0,N/A,Filled
Human,6,1,1,15,Auditory,TOJ,Adaptive,Duration,0.21,Auditory,0.91,Auditory,0.7,1,N/A,Filled
Human,6,1,1,16,Auditory,TOJ,Adaptive,Duration,0.195,Auditory,0.895,Auditory,0.7,1,N/A,Filled
Human,6,1,1,17,Auditory,TOJ,Adaptive,Duration,0.18,Auditory,0.88,Auditory,0.7,1,N/A,Filled
Human,6,1,1,18,Auditory,TOJ,Adaptive,Duration,0.165,Auditory,0.865,Auditory,0.7,1,N/A,Filled
Human,6,1,1,19,Auditory,TOJ,Adaptive,Duration,0.15,Auditory,0.85,Auditory,0.7,1,N/A,Filled
Human,6,1,1,20,Auditory,TOJ,Adaptive,Duration,0.135,Auditory,0.835,Auditory,0.7,1,N/A,Filled
Human,6,1,1,21,Auditory,TOJ,Adaptive,Duration,0.12,Auditory,0.7,Auditory,0.82,0,N/A,Filled
Human,6,1,1,22,Auditory,TOJ,Adaptive,Duration,0.105,Auditory,0.805,Auditory,0.7,0,N/A,Filled
Human,6,1,1,23,Auditory,TOJ,Adaptive,Duration,0.09,Auditory,0.7,Auditory,0.79,0,N/A,Filled
Human,6,1,1,24,Auditory,TOJ,Adaptive,Duration,0.075,Auditory,0.775,Auditory,0.7,0,N/A,Filled
Human,6,1,1,25,Auditory,TOJ,Adaptive,Duration,0.12,Auditory,0.82,Auditory,0.7,0,N/A,Filled
Human,6,1,1,26,Auditory,TOJ,Adaptive,Duration,0.105,Auditory,0.7,Auditory,0.805,0,N/A,Filled
Human,6,1,1,27,Auditory,TOJ,Adaptive,Duration,0.09,Auditory,0.7,Auditory,0.79,1,N/A,Filled
Human,6,1,1,28,Auditory,TOJ,Adaptive,Duration,0.075,Auditory,0.7,Auditory,0.775,1,N/A,Filled
Human,6,1,1,29,Auditory,TOJ,Adaptive,Duration,0.06,Auditory,0.76,Auditory,0.7,0,N/A,Filled
Human,6,1,1,30,Auditory,TOJ,Adaptive,Duration,0.105,Auditory,0.7,Auditory,0.805,1,N/A,Filled
Human,6,1,1,31,Auditory,TOJ,Adaptive,Duration,0.095,Auditory,0.795,Auditory,0.7,0,N/A,Filled
Human,6,1,1,32,Auditory,TOJ,Adaptive,Duration,0.085,Auditory,0.7,Auditory,0.785,0,N/A,Filled
Human,6,1,1,33,Auditory,TOJ,Adaptive,Duration,0.075,Auditory,0.7,Auditory,0.775,1,N/A,Filled
Human,6,1,1,34,Auditory,TOJ,Adaptive,Duration,0.065,Auditory,0.7,Auditory,0.765,1,N/A,Filled
Human,6,1,1,35,Auditory,TOJ,Adaptive,Duration,0.055,Auditory,0.7,Auditory,0.755,1,N/A,Filled
Human,6,1,1,36,Auditory,TOJ,Adaptive,Duration,0.045,Auditory,0.745,Auditory,0.7,0,N/A,Filled
Human,6,1,1,37,Auditory,TOJ,Adaptive,Duration,0.075,Auditory,0.7,Auditory,0.775,1,N/A,Filled
Human,6,1,1,38,Auditory,TOJ,Adaptive,Duration,0.065,Auditory,0.765,Auditory,0.7,0,N/A,Filled
Human,6,1,1,39,Auditory,TOJ,Adaptive,Duration,0.055,Auditory,0.755,Auditory,0.7,1,N/A,Filled
Human,6,1,1,40,Auditory,TOJ,Adaptive,Duration,0.085,Auditory,0.785,Auditory,0.7,0,N/A,Filled
Human,6,1,1,41,Auditory,TOJ,Adaptive,Duration,0.115,Auditory,0.815,Auditory,0.7,0,N/A,Filled
Human,6,1,1,42,Auditory,TOJ,Adaptive,Duration,0.105,Auditory,0.805,Auditory,0.7,1,N/A,Filled
Human,6,1,1,43,Auditory,TOJ,Adaptive,Duration,0.095,Auditory,0.7,Auditory,0.795,0,N/A,Filled
Human,6,1,1,44,Auditory,TOJ,Adaptive,Duration,0.085,Auditory,0.7,Auditory,0.785,1,N/A,Filled
Human,6,1,1,45,Auditory,TOJ,Adaptive,Duration,0.075,Auditory,0.775,Auditory,0.7,0,N/A,Filled
Human,6,1,1,46,Auditory,TOJ,Adaptive,Duration,0.065,Auditory,0.765,Auditory,0.7,1,N/A,Filled
Human,6,1,1,47,Auditory,TOJ,Adaptive,Duration,0.095,Auditory,0.7,Auditory,0.795,1,N/A,Filled
Human,6,1,1,48,Auditory,TOJ,Adaptive,Duration,0.085,Auditory,0.785,Auditory,0.7,0,N/A,Filled
Human,6,1,1,49,Auditory,TOJ,Adaptive,Duration,0.075,Auditory,0.7,Auditory,0.775,0,N/A,Filled
Human,6,1,1,50,Auditory,TOJ,Adaptive,Duration,0.065,Auditory,0.765,Auditory,0.7,0,N/A,Filled
Human,7,1,1,1,Auditory,TOJ,Adaptive,Duration,0.3,Auditory,0.7,Auditory,1,0,N/A,Filled
Human,7,1,1,2,Auditory,TOJ,Adaptive,Duration,0.285,Auditory,0.985,Auditory,0.7,0,N/A,Filled
Human,7,1,1,3,Auditory,TOJ,Adaptive,Duration,0.27,Auditory,0.97,Auditory,0.7,1,N/A,Filled
Human,7,1,1,4,Auditory,TOJ,Adaptive,Duration,0.255,Auditory,0.7,Auditory,0.955,0,N/A,Filled
Human,7,1,1,5,Auditory,TOJ,Adaptive,Duration,0.24,Auditory,0.94,Auditory,0.7,0,N/A,Filled
Human,7,1,1,6,Auditory,TOJ,Adaptive,Duration,0.225,Auditory,0.7,Auditory,0.925,0,N/A,Filled
Human,7,1,1,7,Auditory,TOJ,Adaptive,Duration,0.21,Auditory,0.7,Auditory,0.91,1,N/A,Filled
Human,7,1,1,8,Auditory,TOJ,Adaptive,Duration,0.195,Auditory,0.895,Auditory,0.7,0,N/A,Filled
Human,7,1,1,9,Auditory,TOJ,Adaptive,Duration,0.18,Auditory,0.88,Auditory,0.7,1,N/A,Filled
Human,7,1,1,10,Auditory,TOJ,Adaptive,Duration,0.165,Auditory,0.865,Auditory,0.7,1,N/A,Filled
Human,7,1,1,11,Auditory,TOJ,Adaptive,Duration,0.15,Auditory,0.85,Auditory,0.7,1,N/A,Filled
Human,7,1,1,12,Auditory,TOJ,Adaptive,Duration,0.135,Auditory,0.835,Auditory,0.7,1,N/A,Filled
Human,7,1,1,13,Auditory,TOJ,Adaptive,Duration,0.12,Auditory,0.7,Auditory,0.82,0,N/A,Filled
Human,7,1,1,14,Auditory,TOJ,Adaptive,Duration,0.105,Auditory,0.805,Auditory,0.7,0,N/A,Filled
Human,7,1,1,15,Auditory,TOJ,Adaptive,Duration,0.09,Auditory,0.7,Auditory,0.79,0,N/A,Filled
Human,7,1,1,16,Auditory,TOJ,Adaptive,Duration,0.075,Auditory,0.775,Auditory,0.7,0,N/A,Filled
Human,7,1,1,17,Auditory,TOJ,Adaptive,Duration,0.06,Auditory,0.7,Auditory,0.76,0,N/A,Filled
Human,7,1,1,18,Auditory,TOJ,Adaptive,Duration,0.105,Auditory,0.7,Auditory,0.805,0,N/A,Filled
Human,7,1,1,19,Auditory,TOJ,Adaptive,Duration,0.09,Auditory,0.79,Auditory,0.7,0,N/A,Filled
Human,7,1,1,20,Auditory,TOJ,Adaptive,Duration,0.075,Auditory,0.7,Auditory,0.775,0,N/A,Filled
Human,7,1,1,21,Auditory,TOJ,Adaptive,Duration,0.06,Auditory,0.76,Auditory,0.7,0,N/A,Filled
Human,7,1,1,22,Auditory,TOJ,Adaptive,Duration,0.045,Auditory,0.7,Auditory,0.745,0,N/A,Filled
Human,7,1,1,23,Auditory,TOJ,Adaptive,Duration,0.03,Auditory,0.73,Auditory,0.7,0,N/A,Filled
Human,7,1,1,24,Auditory,TOJ,Adaptive,Duration,0.015,Auditory,0.7,Auditory,0.715,0,N/A,Filled
Human,7,1,1,25,Auditory,TOJ,Adaptive,Duration,0.06,Auditory,0.76,Auditory,0.7,1,N/A,Filled
Human,7,1,1,26,Auditory,TOJ,Adaptive,Duration,0.105,Auditory,0.805,Auditory,0.7,0,N/A,Filled
Human,7,1,1,27,Auditory,TOJ,Adaptive,Duration,0.09,Auditory,0.7,Auditory,0.79,0,N/A,Filled
Human,7,1,1,28,Auditory,TOJ,Adaptive,Duration,0.075,Auditory,0.7,Auditory,0.775,1,N/A,Filled
Human,7,1,1,29,Auditory,TOJ,Adaptive,Duration,0.12,Auditory,0.82,Auditory,0.7,1,N/A,Filled
Human,7,1,1,30,Auditory,TOJ,Adaptive,Duration,0.105,Auditory,0.805,Auditory,0.7,1,N/A,Filled
Human,7,1,1,31,Auditory,TOJ,Adaptive,Duration,0.095,Auditory,0.7,Auditory,0.795,0,N/A,Filled
Human,7,1,1,32,Auditory,TOJ,Adaptive,Duration,0.125,Auditory,0.7,Auditory,0.825,0,N/A,Filled
Human,7,1,1,33,Auditory,TOJ,Adaptive,Duration,0.115,Auditory,0.815,Auditory,0.7,0,N/A,Filled
Human,7,1,1,34,Auditory,TOJ,Adaptive,Duration,0.105,Auditory,0.805,Auditory,0.7,1,N/A,Filled
Human,7,1,1,35,Auditory,TOJ,Adaptive,Duration,0.095,Auditory,0.7,Auditory,0.795,0,N/A,Filled
Human,7,1,1,36,Auditory,TOJ,Adaptive,Duration,0.125,Auditory,0.7,Auditory,0.825,0,N/A,Filled
Human,7,1,1,37,Auditory,TOJ,Adaptive,Duration,0.155,Auditory,0.7,Auditory,0.855,0,N/A,Filled
Human,7,1,1,38,Auditory,TOJ,Adaptive,Duration,0.145,Auditory,0.845,Auditory,0.7,0,N/A,Filled
Human,7,1,1,39,Auditory,TOJ,Adaptive,Duration,0.135,Auditory,0.7,Auditory,0.835,0,N/A,Filled
Human,7,1,1,40,Auditory,TOJ,Adaptive,Duration,0.125,Auditory,0.825,Auditory,0.7,0,N/A,Filled
Human,7,1,1,41,Auditory,TOJ,Adaptive,Duration,0.115,Auditory,0.815,Auditory,0.7,1,N/A,Filled
Human,7,1,1,42,Auditory,TOJ,Adaptive,Duration,0.105,Auditory,0.805,Auditory,0.7,1,N/A,Filled
Human,7,1,1,43,Auditory,TOJ,Adaptive,Duration,0.095,Auditory,0.7,Auditory,0.795,0,N/A,Filled
Human,7,1,1,44,Auditory,TOJ,Adaptive,Duration,0.085,Auditory,0.785,Auditory,0.7,0,N/A,Filled
Human,7,1,1,45,Auditory,TOJ,Adaptive,Duration,0.075,Auditory,0.7,Auditory,0.775,0,N/A,Filled
Human,7,1,1,46,Auditory,TOJ,Adaptive,Duration,0.065,Auditory,0.7,Auditory,0.765,1,N/A,Filled
Human,7,1,1,47,Auditory,TOJ,Adaptive,Duration,0.055,Auditory,0.755,Auditory,0.7,0,N/A,Filled
Human,7,1,1,48,Auditory,TOJ,Adaptive,Duration,0.045,Auditory,0.745,Auditory,0.7,1,N/A,Filled
Human,7,1,1,49,Auditory,TOJ,Adaptive,Duration,0.035,Auditory,0.735,Auditory,0.7,1,N/A,Filled
Human,7,1,1,50,Auditory,TOJ,Adaptive,Duration,0.065,Auditory,0.765,Auditory,0.7,0,N/A,Filled
Human,8,1,1,1,Auditory,TOJ,Adaptive,Duration,0.3,Auditory,1,Auditory,0.7,0,N/A,Filled
Human,8,1,1,2,Auditory,TOJ,Adaptive,Duration,0.285,Auditory,0.985,Auditory,0.7,1,N/A,Filled
Human,8,1,1,3,Auditory,TOJ,Adaptive,Duration,0.27,Auditory,0.97,Auditory,0.7,1,N/A,Filled
Human,8,1,1,4,Auditory,TOJ,Adaptive,Duration,0.255,Auditory,0.955,Auditory,0.7,1,N/A,Filled
Human,8,1,1,5,Auditory,TOJ,Adaptive,Duration,0.24,Auditory,0.7,Auditory,0.94,0,N/A,Filled
Human,8,1,1,6,Auditory,TOJ,Adaptive,Duration,0.225,Auditory,0.925,Auditory,0.7,0,N/A,Filled
Human,8,1,1,7,Auditory,TOJ,Adaptive,Duration,0.21,Auditory,0.91,Auditory,0.7,1,N/A,Filled
Human,8,1,1,8,Auditory,TOJ,Adaptive,Duration,0.255,Auditory,0.955,Auditory,0.7,0,N/A,Filled
Human,8,1,1,9,Auditory,TOJ,Adaptive,Duration,0.24,Auditory,0.94,Auditory,0.7,1,N/A,Filled
Human,8,1,1,10,Auditory,TOJ,Adaptive,Duration,0.225,Auditory,0.925,Auditory,0.7,1,N/A,Filled
Human,8,1,1,11,Auditory,TOJ,Adaptive,Duration,0.27,Auditory,0.7,Auditory,0.97,1,N/A,Filled
Human,8,1,1,12,Auditory,TOJ,Adaptive,Duration,0.255,Auditory,0.7,Auditory,0.955,1,N/A,Filled
Human,8,1,1,13,Auditory,TOJ,Adaptive,Duration,0.24,Auditory,0.94,Auditory,0.7,0,N/A,Filled
Human,8,1,1,14,Auditory,TOJ,Adaptive,Duration,0.225,Auditory,0.7,Auditory,0.925,0,N/A,Filled
Human,8,1,1,15,Auditory,TOJ,Adaptive,Duration,0.21,Auditory,0.91,Auditory,0.7,0,N/A,Filled
Human,8,1,1,16,Auditory,TOJ,Adaptive,Duration,0.195,Auditory,0.895,Auditory,0.7,1,N/A,Filled
Human,8,1,1,17,Auditory,TOJ,Adaptive,Duration,0.18,Auditory,0.88,Auditory,0.7,1,N/A,Filled
Human,8,1,1,18,Auditory,TOJ,Adaptive,Duration,0.165,Auditory,0.865,Auditory,0.7,1,N/A,Filled
Human,8,1,1,19,Auditory,TOJ,Adaptive,Duration,0.15,Auditory,0.85,Auditory,0.7,1,N/A,Filled
Human,8,1,1,20,Auditory,TOJ,Adaptive,Duration,0.135,Auditory,0.7,Auditory,0.835,0,N/A,Filled
Human,8,1,1,21,Auditory,TOJ,Adaptive,Duration,0.12,Auditory,0.7,Auditory,0.82,1,N/A,Filled
Human,8,1,1,22,Auditory,TOJ,Adaptive,Duration,0.105,Auditory,0.805,Auditory,0.7,0,N/A,Filled
Human,8,1,1,23,Auditory,TOJ,Adaptive,Duration,0.15,Auditory,0.85,Auditory,0.7,0,N/A,Filled
Human,8,1,1,24,Auditory,TOJ,Adaptive,Duration,0.135,Auditory,0.835,Auditory,0.7,1,N/A,Filled
Human,8,1,1,25,Auditory,TOJ,Adaptive,Duration,0.12,Auditory,0.7,Auditory,0.82,0,N/A,Filled
Human,8,1,1,26,Auditory,TOJ,Adaptive,Duration,0.105,Auditory,0.805,Auditory,0.7,0,N/A,Filled
Human,8,1,1,27,Auditory,TOJ,Adaptive,Duration,0.09,Auditory,0.7,Auditory,0.79,0,N/A,Filled
Human,8,1,1,28,Auditory,TOJ,Adaptive,Duration,0.075,Auditory,0.7,Auditory,0.775,1,N/A,Filled
Human,8,1,1,29,Auditory,TOJ,Adaptive,Duration,0.06,Auditory,0.7,Auditory,0.76,1,N/A,Filled
Human,8,1,1,30,Auditory,TOJ,Adaptive,Duration,0.045,Auditory,0.745,Auditory,0.7,0,N/A,Filled
Human,8,1,1,31,Auditory,TOJ,Adaptive,Duration,0.035,Auditory,0.735,Auditory,0.7,1,N/A,Filled
Human,8,1,1,32,Auditory,TOJ,Adaptive,Duration,0.025,Auditory,0.725,Auditory,0.7,1,N/A,Filled
Human,8,1,1,33,Auditory,TOJ,Adaptive,Duration,0.055,Auditory,0.755,Auditory,0.7,0,N/A,Filled
Human,8,1,1,34,Auditory,TOJ,Adaptive,Duration,0.045,Auditory,0.745,Auditory,0.7,1,N/A,Filled
Human,8,1,1,35,Auditory,TOJ,Adaptive,Duration,0.075,Auditory,0.7,Auditory,0.775,1,N/A,Filled
Human,8,1,1,36,Auditory,TOJ,Adaptive,Duration,0.065,Auditory,0.765,Auditory,0.7,0,N/A,Filled
Human,8,1,1,37,Auditory,TOJ,Adaptive,Duration,0.055,Auditory,0.755,Auditory,0.7,1,N/A,Filled
Human,8,1,1,38,Auditory,TOJ,Adaptive,Duration,0.085,Auditory,0.7,Auditory,0.785,1,N/A,Filled
Human,8,1,1,39,Auditory,TOJ,Adaptive,Duration,0.115,Auditory,0.815,Auditory,0.7,1,N/A,Filled
Human,8,1,1,40,Auditory,TOJ,Adaptive,Duration,0.105,Auditory,0.805,Auditory,0.7,1,N/A,Filled
Human,8,1,1,41,Auditory,TOJ,Adaptive,Duration,0.095,Auditory,0.795,Auditory,0.7,1,N/A,Filled
Human,8,1,1,42,Auditory,TOJ,Adaptive,Duration,0.125,Auditory,0.825,Auditory,0.7,0,N/A,Filled
Human,8,1,1,43,Auditory,TOJ,Adaptive,Duration,0.115,Auditory,0.815,Auditory,0.7,1,N/A,Filled
Human,8,1,1,44,Auditory,TOJ,Adaptive,Duration,0.145,Auditory,0.7,Auditory,0.845,1,N/A,Filled
Human,8,1,1,45,Auditory,TOJ,Adaptive,Duration,0.135,Auditory,0.835,Auditory,0.7,0,N/A,Filled
Human,8,1,1,46,Auditory,TOJ,Adaptive,Duration,0.125,Auditory,0.825,Auditory,0.7,1,N/A,Filled
Human,8,1,1,47,Auditory,TOJ,Adaptive,Duration,0.155,Auditory,0.7,Auditory,0.855,1,N/A,Filled
Human,8,1,1,48,Auditory,TOJ,Adaptive,Duration,0.145,Auditory,0.7,Auditory,0.845,1,N/A,Filled
Human,8,1,1,49,Auditory,TOJ,Adaptive,Duration,0.135,Auditory,0.835,Auditory,0.7,0,N/A,Filled
Human,8,1,1,50,Auditory,TOJ,Adaptive,Duration,0.165,Auditory,0.7,Auditory,0.865,1,N/A,Filled
Human,9,1,1,1,Auditory,TOJ,Adaptive,Duration,0.3,Auditory,1,Auditory,0.7,0,N/A,Filled
Human,9,1,1,2,Auditory,TOJ,Adaptive,Duration,0.285,Auditory,0.985,Auditory,0.7,1,N/A,Filled
Human,9,1,1,3,Auditory,TOJ,Adaptive,Duration,0.27,Auditory,0.7,Auditory,0.97,0,N/A,Filled
Human,9,1,1,4,Auditory,TOJ,Adaptive,Duration,0.255,Auditory,0.955,Auditory,0.7,0,N/A,Filled
Human,9,1,1,5,Auditory,TOJ,Adaptive,Duration,0.3,Auditory,1,Auditory,0.7,0,N/A,Filled
Human,9,1,1,6,Auditory,TOJ,Adaptive,Duration,0.285,Auditory,0.7,Auditory,0.985,0,N/A,Filled
Human,9,1,1,7,Auditory,TOJ,Adaptive,Duration,0.27,Auditory,0.7,Auditory,0.97,1,N/A,Filled
Human,9,1,1,8,Auditory,TOJ,Adaptive,Duration,0.255,Auditory,0.7,Auditory,0.955,1,N/A,Filled
Human,9,1,1,9,Auditory,TOJ,Adaptive,Duration,0.24,Auditory,0.7,Auditory,0.94,1,N/A,Filled
Human,9,1,1,10,Auditory,TOJ,Adaptive,Duration,0.225,Auditory,0.925,Auditory,0.7,0,N/A,Filled
Human,9,1,1,11,Auditory,TOJ,Adaptive,Duration,0.21,Auditory,0.7,Auditory,0.91,0,N/A,Filled
Human,9,1,1,12,Auditory,TOJ,Adaptive,Duration,0.195,Auditory,0.895,Auditory,0.7,0,N/A,Filled
Human,9,1,1,13,Auditory,TOJ,Adaptive,Duration,0.18,Auditory,0.88,Auditory,0.7,1,N/A,Filled
Human,9,1,1,14,Auditory,TOJ,Adaptive,Duration,0.165,Auditory,0.7,Auditory,0.865,0,N/A,Filled
Human,9,1,1,15,Auditory,TOJ,Adaptive,Duration,0.15,Auditory,0.7,Auditory,0.85,1,N/A,Filled
Human,9,1,1,16,Auditory,TOJ,Adaptive,Duration,0.135,Auditory,0.7,Auditory,0.835,1,N/A,Filled
Human,9,1,1,17,Auditory,TOJ,Adaptive,Duration,0.12,Auditory,0.7,Auditory,0.82,1,N/A,Filled
Human,9,1,1,18,Auditory,TOJ,Adaptive,Duration,0.105,Auditory,0.805,Auditory,0.7,0,N/A,Filled
Human,9,1,1,19,Auditory,TOJ,Adaptive,Duration,0.09,Auditory,0.79,Auditory,0.7,1,N/A,Filled
Human,9,1,1,20,Auditory,TOJ,Adaptive,Duration,0.075,Auditory,0.7,Auditory,0.775,0,N/A,Filled
Human,9,1,1,21,Auditory,TOJ,Adaptive,Duration,0.06,Auditory,0.7,Auditory,0.76,1,N/A,Filled
Human,9,1,1,22,Auditory,TOJ,Adaptive,Duration,0.105,Auditory,0.7,Auditory,0.805,0,N/A,Filled
Human,9,1,1,23,Auditory,TOJ,Adaptive,Duration,0.09,Auditory,0.79,Auditory,0.7,0,N/A,Filled
Human,9,1,1,24,Auditory,TOJ,Adaptive,Duration,0.075,Auditory,0.775,Auditory,0.7,1,N/A,Filled
Human,9,1,1,25,Auditory,TOJ,Adaptive,Duration,0.06,Auditory,0.7,Auditory,0.76,0,N/A,Filled
Human,9,1,1,26,Auditory,TOJ,Adaptive,Duration,0.045,Auditory,0.745,Auditory,0.7,0,N/A,Filled
Human,9,1,1,27,Auditory,TOJ,Adaptive,Duration,0.09,Auditory,0.79,Auditory,0.7,0,N/A,Filled
Human,9,1,1,28,Auditory,TOJ,Adaptive,Duration,0.075,Auditory,0.775,Auditory,0.7,1,N/A,Filled
Human,9,1,1,29,Auditory,TOJ,Adaptive,Duration,0.06,Auditory,0.76,Auditory,0.7,1,N/A,Filled
Human,9,1,1,30,Auditory,TOJ,Adaptive,Duration,0.045,Auditory,0.7,Auditory,0.745,0,N/A,Filled
Human,9,1,1,31,Auditory,TOJ,Adaptive,Duration,0.035,Auditory,0.7,Auditory,0.735,1,N/A,Filled
Human,9,1,1,32,Auditory,TOJ,Adaptive,Duration,0.065,Auditory,0.765,Auditory,0.7,1,N/A,Filled
Human,9,1,1,33,Auditory,TOJ,Adaptive,Duration,0.055,Auditory,0.755,Auditory,0.7,1,N/A,Filled
Human,9,1,1,34,Auditory,TOJ,Adaptive,Duration,0.045,Auditory,0.7,Auditory,0.745,0,N/A,Filled
Human,9,1,1,35,Auditory,TOJ,Adaptive,Duration,0.035,Auditory,0.735,Auditory,0.7,0,N/A,Filled
Human,9,1,1,36,Auditory,TOJ,Adaptive,Duration,0.025,Auditory,0.725,Auditory,0.7,1,N/A,Filled
Human,9,1,1,37,Auditory,TOJ,Adaptive,Duration,0.055,Auditory,0.755,Auditory,0.7,0,N/A,Filled
Human,9,1,1,38,Auditory,TOJ,Adaptive,Duration,0.045,Auditory,0.745,Auditory,0.7,1,N/A,Filled
Human,9,1,1,39,Auditory,TOJ,Adaptive,Duration,0.035,Auditory,0.7,Auditory,0.735,0,N/A,Filled
Human,9,1,1,40,Auditory,TOJ,Adaptive,Duration,0.025,Auditory,0.725,Auditory,0.7,0,N/A,Filled
Human,9,1,1,41,Auditory,TOJ,Adaptive,Duration,0.015,Auditory,0.715,Auditory,0.7,1,N/A,Filled
Human,9,1,1,42,Auditory,TOJ,Adaptive,Duration,0.005,Auditory,0.7,Auditory,0.705,0,N/A,Filled
Human,9,1,1,43,Auditory,TOJ,Adaptive,Duration,0.005,Auditory,0.7,Auditory,0.705,1,N/A,Filled
Human,9,1,1,44,Auditory,TOJ,Adaptive,Duration,0.035,Auditory,0.7,Auditory,0.735,0,N/A,Filled
Human,9,1,1,45,Auditory,TOJ,Adaptive,Duration,0.025,Auditory,0.725,Auditory,0.7,0,N/A,Filled
Human,9,1,1,46,Auditory,TOJ,Adaptive,Duration,0.015,Auditory,0.715,Auditory,0.7,1,N/A,Filled
Human,9,1,1,47,Auditory,TOJ,Adaptive,Duration,0.005,Auditory,0.7,Auditory,0.705,0,N/A,Filled
Human,9,1,1,48,Auditory,TOJ,Adaptive,Duration,0.035,Auditory,0.7,Auditory,0.735,0,N/A,Filled
Human,9,1,1,49,Auditory,TOJ,Adaptive,Duration,0.025,Auditory,0.7,Auditory,0.725,1,N/A,Filled
Human,9,1,1,50,Auditory,TOJ,Adaptive,Duration,0.015,Auditory,0.7,Auditory,0.715,1,N/A,Filled
Human,10,1,1,1,Auditory,TOJ,Adaptive,Duration,0.3,Auditory,0.7,Auditory,1,0,N/A,Filled
Human,10,1,1,2,Auditory,TOJ,Adaptive,Duration,0.285,Auditory,0.985,Auditory,0.7,0,N/A,Filled
Human,10,1,1,3,Auditory,TOJ,Adaptive,Duration,0.27,Auditory,0.97,Auditory,0.7,1,N/A,Filled
Human,10,1,1,4,Auditory,TOJ,Adaptive,Duration,0.255,Auditory,0.955,Auditory,0.7,1,N/A,Filled
Human,10,1,1,5,Auditory,TOJ,Adaptive,Duration,0.24,Auditory,0.94,Auditory,0.7,1,N/A,Filled
Human,10,1,1,6,Auditory,TOJ,Adaptive,Duration,0.225,Auditory,0.925,Auditory,0.7,1,N/A,Filled
Human,10,1,1,7,Auditory,TOJ,Adaptive,Duration,0.21,Auditory,0.7,Auditory,0.91,0,N/A,Filled
Human,10,1,1,8,Auditory,TOJ,Adaptive,Duration,0.255,Auditory,0.955,Auditory,0.7,1,N/A,Filled
Human,10,1,1,9,Auditory,TOJ,Adaptive,Duration,0.24,Auditory,0.94,Auditory,0.7,1,N/A,Filled
Human,10,1,1,10,Auditory,TOJ,Adaptive,Duration,0.225,Auditory,0.925,Auditory,0.7,1,N/A,Filled
Human,10,1,1,11,Auditory,TOJ,Adaptive,Duration,0.21,Auditory,0.91,Auditory,0.7,1,N/A,Filled
Human,10,1,1,12,Auditory,TOJ,Adaptive,Duration,0.195,Auditory,0.895,Auditory,0.7,1,N/A,Filled
Human,10,1,1,13,Auditory,TOJ,Adaptive,Duration,0.18,Auditory,0.88,Auditory,0.7,1,N/A,Filled
Human,10,1,1,14,Auditory,TOJ,Adaptive,Duration,0.165,Auditory,0.7,Auditory,0.865,0,N/A,Filled
Human,10,1,1,15,Auditory,TOJ,Adaptive,Duration,0.15,Auditory,0.7,Auditory,0.85,1,N/A,Filled
Human,10,1,1,16,Auditory,TOJ,Adaptive,Duration,0.135,Auditory,0.7,Auditory,0.835,1,N/A,Filled
Human,10,1,1,17,Auditory,TOJ,Adaptive,Duration,0.12,Auditory,0.82,Auditory,0.7,0,N/A,Filled
Human,10,1,1,18,Auditory,TOJ,Adaptive,Duration,0.105,Auditory,0.7,Auditory,0.805,0,N/A,Filled
Human,10,1,1,19,Auditory,TOJ,Adaptive,Duration,0.09,Auditory,0.79,Auditory,0.7,0,N/A,Filled
Human,10,1,1,20,Auditory,TOJ,Adaptive,Duration,0.135,Auditory,0.7,Auditory,0.835,1,N/A,Filled
Human,10,1,1,21,Auditory,TOJ,Adaptive,Duration,0.12,Auditory,0.82,Auditory,0.7,0,N/A,Filled
Human,10,1,1,22,Auditory,TOJ,Adaptive,Duration,0.105,Auditory,0.805,Auditory,0.7,1,N/A,Filled
Human,10,1,1,23,Auditory,TOJ,Adaptive,Duration,0.15,Auditory,0.85,Auditory,0.7,0,N/A,Filled
Human,10,1,1,24,Auditory,TOJ,Adaptive,Duration,0.135,Auditory,0.835,Auditory,0.7,1,N/A,Filled
Human,10,1,1,25,Auditory,TOJ,Adaptive,Duration,0.18,Auditory,0.88,Auditory,0.7,0,N/A,Filled
Human,10,1,1,26,Auditory,TOJ,Adaptive,Duration,0.165,Auditory,0.7,Auditory,0.865,0,N/A,Filled
Human,10,1,1,27,Auditory,TOJ,Adaptive,Duration,0.15,Auditory,0.85,Auditory,0.7,0,N/A,Filled
Human,10,1,1,28,Auditory,TOJ,Adaptive,Duration,0.135,Auditory,0.7,Auditory,0.835,0,N/A,Filled
Human,10,1,1,29,Auditory,TOJ,Adaptive,Duration,0.12,Auditory,0.82,Auditory,0.7,0,N/A,Filled
Human,10,1,1,30,Auditory,TOJ,Adaptive,Duration,0.105,Auditory,0.805,Auditory,0.7,1,N/A,Filled
Human,10,1,1,31,Auditory,TOJ,Adaptive,Duration,0.095,Auditory,0.7,Auditory,0.795,0,N/A,Filled
Human,10,1,1,32,Auditory,TOJ,Adaptive,Duration,0.085,Auditory,0.7,Auditory,0.785,1,N/A,Filled
Human,10,1,1,33,Auditory,TOJ,Adaptive,Duration,0.075,Auditory,0.7,Auditory,0.775,1,N/A,Filled
Human,10,1,1,34,Auditory,TOJ,Adaptive,Duration,0.065,Auditory,0.7,Auditory,0.765,1,N/A,Filled
Human,10,1,1,35,Auditory,TOJ,Adaptive,Duration,0.095,Auditory,0.795,Auditory,0.7,1,N/A,Filled
Human,10,1,1,36,Auditory,TOJ,Adaptive,Duration,0.125,Auditory,0.7,Auditory,0.825,1,N/A,Filled
Human,10,1,1,37,Auditory,TOJ,Adaptive,Duration,0.115,Auditory,0.7,Auditory,0.815,1,N/A,Filled
Human,10,1,1,38,Auditory,TOJ,Adaptive,Duration,0.105,Auditory,0.7,Auditory,0.805,1,N/A,Filled
Human,10,1,1,39,Auditory,TOJ,Adaptive,Duration,0.095,Auditory,0.7,Auditory,0.795,1,N/A,Filled
Human,10,1,1,40,Auditory,TOJ,Adaptive,Duration,0.085,Auditory,0.7,Auditory,0.785,1,N/A,Filled
Human,10,1,1,41,Auditory,TOJ,Adaptive,Duration,0.075,Auditory,0.7,Auditory,0.775,1,N/A,Filled
Human,10,1,1,42,Auditory,TOJ,Adaptive,Duration,0.065,Auditory,0.7,Auditory,0.765,1,N/A,Filled
Human,10,1,1,43,Auditory,TOJ,Adaptive,Duration,0.055,Auditory,0.7,Auditory,0.755,1,N/A,Filled
Human,10,1,1,44,Auditory,TOJ,Adaptive,Duration,0.045,Auditory,0.745,Auditory,0.7,0,N/A,Filled
Human,10,1,1,45,Auditory,TOJ,Adaptive,Duration,0.075,Auditory,0.7,Auditory,0.775,1,N/A,Filled
Human,10,1,1,46,Auditory,TOJ,Adaptive,Duration,0.105,Auditory,0.7,Auditory,0.805,0,N/A,Filled
Human,10,1,1,47,Auditory,TOJ,Adaptive,Duration,0.095,Auditory,0.7,Auditory,0.795,1,N/A,Filled
Human,10,1,1,48,Auditory,TOJ,Adaptive,Duration,0.125,Auditory,0.825,Auditory,0.7,1,N/A,Filled
Human,10,1,1,49,Auditory,TOJ,Adaptive,Duration,0.155,Auditory,0.7,Auditory,0.855,1,N/A,Filled
Human,10,1,1,50,Auditory,TOJ,Adaptive,Duration,0.145,Auditory,0.845,Auditory,0.7,0,N/A,Filled
Human,11,1,1,1,Auditory,TOJ,Adaptive,Duration,0.3,Auditory,1,Auditory,0.7,0,N/A,Filled
Human,11,1,1,2,Auditory,TOJ,Adaptive,Duration,0.285,Auditory,0.985,Auditory,0.7,1,N/A,Filled
Human,11,1,1,3,Auditory,TOJ,Adaptive,Duration,0.27,Auditory,0.97,Auditory,0.7,1,N/A,Filled
Human,11,1,1,4,Auditory,TOJ,Adaptive,Duration,0.255,Auditory,0.955,Auditory,0.7,1,N/A,Filled
Human,11,1,1,5,Auditory,TOJ,Adaptive,Duration,0.24,Auditory,0.94,Auditory,0.7,1,N/A,Filled
Human,11,1,1,6,Auditory,TOJ,Adaptive,Duration,0.225,Auditory,0.925,Auditory,0.7,1,N/A,Filled
Human,11,1,1,7,Auditory,TOJ,Adaptive,Duration,0.21,Auditory,0.91,Auditory,0.7,1,N/A,Filled
Human,11,1,1,8,Auditory,TOJ,Adaptive,Duration,0.195,Auditory,0.7,Auditory,0.895,0,N/A,Filled
Human,11,1,1,9,Auditory,TOJ,Adaptive,Duration,0.18,Auditory,0.88,Auditory,0.7,0,N/A,Filled
Human,11,1,1,10,Auditory,TOJ,Adaptive,Duration,0.165,Auditory,0.865,Auditory,0.7,1,N/A,Filled
Human,11,1,1,11,Auditory,TOJ,Adaptive,Duration,0.15,Auditory,0.85,Auditory,0.7,1,N/A,Filled
Human,11,1,1,12,Auditory,TOJ,Adaptive,Duration,0.135,Auditory,0.835,Auditory,0.7,1,N/A,Filled
Human,11,1,1,13,Auditory,TOJ,Adaptive,Duration,0.12,Auditory,0.82,Auditory,0.7,1,N/A,Filled
Human,11,1,1,14,Auditory,TOJ,Adaptive,Duration,0.105,Auditory,0.805,Auditory,0.7,1,N/A,Filled
Human,11,1,1,15,Auditory,TOJ,Adaptive,Duration,0.09,Auditory,0.79,Auditory,0.7,1,N/A,Filled
Human,11,1,1,16,Auditory,TOJ,Adaptive,Duration,0.135,Auditory,0.835,Auditory,0.7,0,N/A,Filled
Human,11,1,1,17,Auditory,TOJ,Adaptive,Duration,0.12,Auditory,0.7,Auditory,0.82,0,N/A,Filled
Human,11,1,1,18,Auditory,TOJ,Adaptive,Duration,0.105,Auditory,0.7,Auditory,0.805,1,N/A,Filled
Human,11,1,1,19,Auditory,TOJ,Adaptive,Duration,0.09,Auditory,0.7,Auditory,0.79,1,N/A,Filled
Human,11,1,1,20,Auditory,TOJ,Adaptive,Duration,0.075,Auditory,0.7,Auditory,0.775,1,N/A,Filled
Human,11,1,1,21,Auditory,TOJ,Adaptive,Duration,0.06,Auditory,0.76,Auditory,0.7,0,N/A,Filled
Human,11,1,1,22,Auditory,TOJ,Adaptive,Duration,0.105,Auditory,0.7,Auditory,0.805,1,N/A,Filled
Human,11,1,1,23,Auditory,TOJ,Adaptive,Duration,0.09,Auditory,0.79,Auditory,0.7,0,N/A,Filled
Human,11,1,1,24,Auditory,TOJ,Adaptive,Duration,0.135,Auditory,0.7,Auditory,0.835,1,N/A,Filled
Human,11,1,1,25,Auditory,TOJ,Adaptive,Duration,0.12,Auditory,0.82,Auditory,0.7,0,N/A,Filled
Human,11,1,1,26,Auditory,TOJ,Adaptive,Duration,0.105,Auditory,0.805,Auditory,0.7,1,N/A,Filled
Human,11,1,1,27,Auditory,TOJ,Adaptive,Duration,0.09,Auditory,0.79,Auditory,0.7,1,N/A,Filled
Human,11,1,1,28,Auditory,TOJ,Adaptive,Duration,0.075,Auditory,0.775,Auditory,0.7,1,N/A,Filled
Human,11,1,1,29,Auditory,TOJ,Adaptive,Duration,0.06,Auditory,0.7,Auditory,0.76,0,N/A,Filled
Human,11,1,1,30,Auditory,TOJ,Adaptive,Duration,0.045,Auditory,0.745,Auditory,0.7,0,N/A,Filled
Human,11,1,1,31,Auditory,TOJ,Adaptive,Duration,0.075,Auditory,0.775,Auditory,0.7,0,N/A,Filled
Human,11,1,1,32,Auditory,TOJ,Adaptive,Duration,0.065,Auditory,0.765,Auditory,0.7,1,N/A,Filled
Human,11,1,1,33,Auditory,TOJ,Adaptive,Duration,0.055,Auditory,0.755,Auditory,0.7,1,N/A,Filled
Human,11,1,1,34,Auditory,TOJ,Adaptive,Duration,0.045,Auditory,0.745,Auditory,0.7,1,N/A,Filled
Human,11,1,1,35,Auditory,TOJ,Adaptive,Duration,0.035,Auditory,0.7,Auditory,0.735,0,N/A,Filled
Human,11,1,1,36,Auditory,TOJ,Adaptive,Duration,0.065,Auditory,0.765,Auditory,0.7,1,N/A,Filled
Human,11,1,1,37,Auditory,TOJ,Adaptive,Duration,0.055,Auditory,0.755,Auditory,0.7,1,N/A,Filled
Human,11,1,1,38,Auditory,TOJ,Adaptive,Duration,0.085,Auditory,0.7,Auditory,0.785,1,N/A,Filled
Human,11,1,1,39,Auditory,TOJ,Adaptive,Duration,0.075,Auditory,0.7,Auditory,0.775,1,N/A,Filled
Human,11,1,1,40,Auditory,TOJ,Adaptive,Duration,0.065,Auditory,0.765,Auditory,0.7,0,N/A,Filled
Human,11,1,1,41,Auditory,TOJ,Adaptive,Duration,0.095,Auditory,0.7,Auditory,0.795,1,N/A,Filled
Human,11,1,1,42,Auditory,TOJ,Adaptive,Duration,0.085,Auditory,0.785,Auditory,0.7,0,N/A,Filled
Human,11,1,1,43,Auditory,TOJ,Adaptive,Duration,0.075,Auditory,0.775,Auditory,0.7,1,N/A,Filled
Human,11,1,1,44,Auditory,TOJ,Adaptive,Duration,0.065,Auditory,0.7,Auditory,0.765,0,N/A,Filled
Human,11,1,1,45,Auditory,TOJ,Adaptive,Duration,0.055,Auditory,0.7,Auditory,0.755,1,N/A,Filled
Human,11,1,1,46,Auditory,TOJ,Adaptive,Duration,0.045,Auditory,0.745,Auditory,0.7,0,N/A,Filled
Human,11,1,1,47,Auditory,TOJ,Adaptive,Duration,0.075,Auditory,0.7,Auditory,0.775,1,N/A,Filled
Human,11,1,1,48,Auditory,TOJ,Adaptive,Duration,0.065,Auditory,0.7,Auditory,0.765,1,N/A,Filled
Human,11,1,1,49,Auditory,TOJ,Adaptive,Duration,0.055,Auditory,0.755,Auditory,0.7,0,N/A,Filled
Human,11,1,1,50,Auditory,TOJ,Adaptive,Duration,0.085,Auditory,0.785,Auditory,0.7,0,N/A,Filled
Human,12,1,1,1,Auditory,TOJ,Adaptive,Duration,0.3,Auditory,1,Auditory,0.7,0,N/A,Filled
Human,12,1,1,2,Auditory,TOJ,Adaptive,Duration,0.285,Auditory,0.985,Auditory,0.7,1,N/A,Filled
Human,12,1,1,3,Auditory,TOJ,Adaptive,Duration,0.27,Auditory,0.97,Auditory,0.7,1,N/A,Filled
Human,12,1,1,4,Auditory,TOJ,Adaptive,Duration,0.315,Auditory,1.015,Auditory,0.7,0,N/A,Filled
Human,12,1,1,5,Auditory,TOJ,Adaptive,Duration,0.3,Auditory,1,Auditory,0.7,1,N/A,Filled
Human,12,1,1,6,Auditory,TOJ,Adaptive,Duration,0.285,Auditory,0.985,Auditory,0.7,1,N/A,Filled
Human,12,1,1,7,Auditory,TOJ,Adaptive,Duration,0.27,Auditory,0.97,Auditory,0.7,1,N/A,Filled
Human,12,1,1,8,Auditory,TOJ,Adaptive,Duration,0.255,Auditory,0.955,Auditory,0.7,1,N/A,Filled
Human,12,1,1,9,Auditory,TOJ,Adaptive,Duration,0.24,Auditory,0.7,Auditory,0.94,0,N/A,Filled
Human,12,1,1,10,Auditory,TOJ,Adaptive,Duration,0.225,Auditory,0.7,Auditory,0.925,1,N/A,Filled
Human,12,1,1,11,Auditory,TOJ,Adaptive,Duration,0.21,Auditory,0.7,Auditory,0.91,1,N/A,Filled
Human,12,1,1,12,Auditory,TOJ,Adaptive,Duration,0.195,Auditory,0.7,Auditory,0.895,1,N/A,Filled
Human,12,1,1,13,Auditory,TOJ,Adaptive,Duration,0.18,Auditory,0.7,Auditory,0.88,1,N/A,Filled
Human,12,1,1,14,Auditory,TOJ,Adaptive,Duration,0.225,Auditory,0.925,Auditory,0.7,1,N/A,Filled
Human,12,1,1,15,Auditory,TOJ,Adaptive,Duration,0.21,Auditory,0.7,Auditory,0.91,0,N/A,Filled
Human,12,1,1,16,Auditory,TOJ,Adaptive,Duration,0.195,Auditory,0.7,Auditory,0.895,1,N/A,Filled
Human,12,1,1,17,Auditory,TOJ,Adaptive,Duration,0.18,Auditory,0.88,Auditory,0.7,0,N/A,Filled
Human,12,1,1,18,Auditory,TOJ,Adaptive,Duration,0.165,Auditory,0.865,Auditory,0.7,1,N/A,Filled
Human,12,1,1,19,Auditory,TOJ,Adaptive,Duration,0.15,Auditory,0.7,Auditory,0.85,0,N/A,Filled
Human,12,1,1,20,Auditory,TOJ,Adaptive,Duration,0.195,Auditory,0.7,Auditory,0.895,0,N/A,Filled
Human,12,1,1,21,Auditory,TOJ,Adaptive,Duration,0.18,Auditory,0.7,Auditory,0.88,1,N/A,Filled
Human,12,1,1,22,Auditory,TOJ,Adaptive,Duration,0.165,Auditory,0.865,Auditory,0.7,0,N/A,Filled
Human,12,1,1,23,Auditory,TOJ,Adaptive,Duration,0.15,Auditory,0.85,Auditory,0.7,1,N/A,Filled
Human,12,1,1,24,Auditory,TOJ,Adaptive,Duration,0.135,Auditory,0.835,Auditory,0.7,1,N/A,Filled
Human,12,1,1,25,Auditory,TOJ,Adaptive,Duration,0.12,Auditory,0.7,Auditory,0.82,0,N/A,Filled
Human,12,1,1,26,Auditory,TOJ,Adaptive,Duration,0.165,Auditory,0.865,Auditory,0.7,1,N/A,Filled
Human,12,1,1,27,Auditory,TOJ,Adaptive,Duration,0.15,Auditory,0.7,Auditory,0.85,0,N/A,Filled
Human,12,1,1,28,Auditory,TOJ,Adaptive,Duration,0.135,Auditory,0.7,Auditory,0.835,1,N/A,Filled
Human,12,1,1,29,Auditory,TOJ,Adaptive,Duration,0.12,Auditory,0.82,Auditory,0.7,0,N/A,Filled
Human,12,1,1,30,Auditory,TOJ,Adaptive,Duration,0.165,Auditory,0.7,Auditory,0.865,1,N/A,Filled
Human,12,1,1,31,Auditory,TOJ,Adaptive,Duration,0.155,Auditory,0.7,Auditory,0.855,1,N/A,Filled
Human,12,1,1,32,Auditory,TOJ,Adaptive,Duration,0.145,Auditory,0.845,Auditory,0.7,0,N/A,Filled
Human,12,1,1,33,Auditory,TOJ,Adaptive,Duration,0.175,Auditory,0.7,Auditory,0.875,1,N/A,Filled
Human,12,1,1,34,Auditory,TOJ,Adaptive,Duration,0.165,Auditory,0.865,Auditory,0.7,0,N/A,Filled
Human,12,1,1,35,Auditory,TOJ,Adaptive,Duration,0.155,Auditory,0.855,Auditory,0.7,1,N/A,Filled
Human,12,1,1,36,Auditory,TOJ,Adaptive,Duration,0.185,Auditory,0.885,Auditory,0.7,0,N/A,Filled
Human,12,1,1,37,Auditory,TOJ,Adaptive,Duration,0.175,Auditory,0.875,Auditory,0.7,1,N/A,Filled
Human,12,1,1,38,Auditory,TOJ,Adaptive,Duration,0.165,Auditory,0.7,Auditory,0.865,0,N/A,Filled
Human,12,1,1,39,Auditory,TOJ,Adaptive,Duration,0.155,Auditory,0.7,Auditory,0.855,1,N/A,Filled
Human,12,1,1,40,Auditory,TOJ,Adaptive,Duration,0.145,Auditory,0.7,Auditory,0.845,1,N/A,Filled
Human,12,1,1,41,Auditory,TOJ,Adaptive,Duration,0.135,Auditory,0.7,Auditory,0.835,1,N/A,Filled
Human,12,1,1,42,Auditory,TOJ,Adaptive,Duration,0.125,Auditory,0.7,Auditory,0.825,1,N/A,Filled
Human,12,1,1,43,Auditory,TOJ,Adaptive,Duration,0.115,Auditory,0.7,Auditory,0.815,1,N/A,Filled
Human,12,1,1,44,Auditory,TOJ,Adaptive,Duration,0.105,Auditory,0.805,Auditory,0.7,0,N/A,Filled
Human,12,1,1,45,Auditory,TOJ,Adaptive,Duration,0.095,Auditory,0.795,Auditory,0.7,1,N/A,Filled
Human,12,1,1,46,Auditory,TOJ,Adaptive,Duration,0.085,Auditory,0.7,Auditory,0.785,0,N/A,Filled
Human,12,1,1,47,Auditory,TOJ,Adaptive,Duration,0.075,Auditory,0.7,Auditory,0.775,1,N/A,Filled
Human,12,1,1,48,Auditory,TOJ,Adaptive,Duration,0.065,Auditory,0.7,Auditory,0.765,1,N/A,Filled
Human,12,1,1,49,Auditory,TOJ,Adaptive,Duration,0.095,Auditory,0.795,Auditory,0.7,1,N/A,Filled
Human,12,1,1,50,Auditory,TOJ,Adaptive,Duration,0.125,Auditory,0.7,Auditory,0.825,1,N/A,Filled
Human,13,1,1,1,Auditory,TOJ,Adaptive,Duration,0.3,Auditory,1,Auditory,0.7,0,N/A,Filled
Human,13,1,1,2,Auditory,TOJ,Adaptive,Duration,0.285,Auditory,0.985,Auditory,0.7,1,N/A,Filled
Human,13,1,1,3,Auditory,TOJ,Adaptive,Duration,0.27,Auditory,0.7,Auditory,0.97,0,N/A,Filled
Human,13,1,1,4,Auditory,TOJ,Adaptive,Duration,0.255,Auditory,0.955,Auditory,0.7,0,N/A,Filled
Human,13,1,1,5,Auditory,TOJ,Adaptive,Duration,0.24,Auditory,0.94,Auditory,0.7,1,N/A,Filled
Human,13,1,1,6,Auditory,TOJ,Adaptive,Duration,0.225,Auditory,0.7,Auditory,0.925,0,N/A,Filled
Human,13,1,1,7,Auditory,TOJ,Adaptive,Duration,0.21,Auditory,0.91,Auditory,0.7,0,N/A,Filled
Human,13,1,1,8,Auditory,TOJ,Adaptive,Duration,0.195,Auditory,0.7,Auditory,0.895,0,N/A,Filled
Human,13,1,1,9,Auditory,TOJ,Adaptive,Duration,0.18,Auditory,0.7,Auditory,0.88,1,N/A,Filled
Human,13,1,1,10,Auditory,TOJ,Adaptive,Duration,0.165,Auditory,0.865,Auditory,0.7,0,N/A,Filled
Human,13,1,1,11,Auditory,TOJ,Adaptive,Duration,0.15,Auditory,0.7,Auditory,0.85,0,N/A,Filled
Human,13,1,1,12,Auditory,TOJ,Adaptive,Duration,0.135,Auditory,0.835,Auditory,0.7,0,N/A,Filled
Human,13,1,1,13,Auditory,TOJ,Adaptive,Duration,0.12,Auditory,0.7,Auditory,0.82,0,N/A,Filled
Human,13,1,1,14,Auditory,TOJ,Adaptive,Duration,0.105,Auditory,0.7,Auditory,0.805,1,N/A,Filled
Human,13,1,1,15,Auditory,TOJ,Adaptive,Duration,0.09,Auditory,0.7,Auditory,0.79,1,N/A,Filled
Human,13,1,1,16,Auditory,TOJ,Adaptive,Duration,0.075,Auditory,0.7,Auditory,0.775,1,N/A,Filled
Human,13,1,1,17,Auditory,TOJ,Adaptive,Duration,0.06,Auditory,0.7,Auditory,0.76,1,N/A,Filled
Human,13,1,1,18,Auditory,TOJ,Adaptive,Duration,0.045,Auditory,0.745,Auditory,0.7,0,N/A,Filled
Human,13,1,1,19,Auditory,TOJ,Adaptive,Duration,0.03,Auditory,0.7,Auditory,0.73,0,N/A,Filled
Human,13,1,1,20,Auditory,TOJ,Adaptive,Duration,0.015,Auditory,0.715,Auditory,0.7,0,N/A,Filled
Human,13,1,1,21,Auditory,TOJ,Adaptive,Duration,0.015,Auditory,0.715,Auditory,0.7,1,N/A,Filled
Human,13,1,1,22,Auditory,TOJ,Adaptive,Duration,0.06,Auditory,0.76,Auditory,0.7,0,N/A,Filled
Human,13,1,1,23,Auditory,TOJ,Adaptive,Duration,0.105,Auditory,0.805,Auditory,0.7,0,N/A,Filled
Human,13,1,1,24,Auditory,TOJ,Adaptive,Duration,0.09,Auditory,0.7,Auditory,0.79,0,N/A,Filled
Human,13,1,1,25,Auditory,TOJ,Adaptive,Duration,0.075,Auditory,0.775,Auditory,0.7,0,N/A,Filled
Human,13,1,1,26,Auditory,TOJ,Adaptive,Duration,0.06,Auditory,0.7,Auditory,0.76,0,N/A,Filled
Human,13,1,1,27,Auditory,TOJ,Adaptive,Duration,0.045,Auditory,0.745,Auditory,0.7,0,N/A,Filled
Human,13,1,1,28,Auditory,TOJ,Adaptive,Duration,0.03,Auditory,0.7,Auditory,0.73,0,N/A,Filled
Human,13,1,1,29,Auditory,TOJ,Adaptive,Duration,0.015,Auditory,0.715,Auditory,0.7,0,N/A,Filled
Human,13,1,1,30,Auditory,TOJ,Adaptive,Duration,0.06,Auditory,0.76,Auditory,0.7,0,N/A,Filled
Human,13,1,1,31,Auditory,TOJ,Adaptive,Duration,0.09,Auditory,0.7,Auditory,0.79,1,N/A,Filled
Human,13,1,1,32,Auditory,TOJ,Adaptive,Duration,0.08,Auditory,0.78,Auditory,0.7,0,N/A,Filled
Human,13,1,1,33,Auditory,TOJ,Adaptive,Duration,0.07,Auditory,0.77,Auditory,0.7,1,N/A,Filled
Human,13,1,1,34,Auditory,TOJ,Adaptive,Duration,0.06,Auditory,0.76,Auditory,0.7,1,N/A,Filled
Human,13,1,1,35,Auditory,TOJ,Adaptive,Duration,0.09,Auditory,0.7,Auditory,0.79,1,N/A,Filled
Human,13,1,1,36,Auditory,TOJ,Adaptive,Duration,0.08,Auditory,0.7,Auditory,0.78,1,N/A,Filled
Human,13,1,1,37,Auditory,TOJ,Adaptive,Duration,0.07,Auditory,0.77,Auditory,0.7,0,N/A,Filled
Human,13,1,1,38,Auditory,TOJ,Adaptive,Duration,0.06,Auditory,0.76,Auditory,0.7,1,N/A,Filled
Human,13,1,1,39,Auditory,TOJ,Adaptive,Duration,0.09,Auditory,0.7,Auditory,0.79,1,N/A,Filled
Human,13,1,1,40,Auditory,TOJ,Adaptive,Duration,0.08,Auditory,0.78,Auditory,0.7,0,N/A,Filled
Human,13,1,1,41,Auditory,TOJ,Adaptive,Duration,0.07,Auditory,0.7,Auditory,0.77,0,N/A,Filled
Human,13,1,1,42,Auditory,TOJ,Adaptive,Duration,0.06,Auditory,0.76,Auditory,0.7,0,N/A,Filled
Human,13,1,1,43,Auditory,TOJ,Adaptive,Duration,0.05,Auditory,0.7,Auditory,0.75,0,N/A,Filled
Human,13,1,1,44,Auditory,TOJ,Adaptive,Duration,0.04,Auditory,0.7,Auditory,0.74,1,N/A,Filled
Human,13,1,1,45,Auditory,TOJ,Adaptive,Duration,0.03,Auditory,0.73,Auditory,0.7,0,N/A,Filled
Human,13,1,1,46,Auditory,TOJ,Adaptive,Duration,0.02,Auditory,0.72,Auditory,0.7,1,N/A,Filled
Human,13,1,1,47,Auditory,TOJ,Adaptive,Duration,0.01,Auditory,0.71,Auditory,0.7,1,N/A,Filled
Human,13,1,1,48,Auditory,TOJ,Adaptive,Duration,0.04,Auditory,0.74,Auditory,0.7,0,N/A,Filled
Human,13,1,1,49,Auditory,TOJ,Adaptive,Duration,0.07,Auditory,0.77,Auditory,0.7,0,N/A,Filled
Human,13,1,1,50,Auditory,TOJ,Adaptive,Duration,0.06,Auditory,0.76,Auditory,0.7,1,N/A,Filled
Human,14,1,1,1,Auditory,TOJ,Adaptive,Duration,0.3,Auditory,1,Auditory,0.7,0,N/A,Filled
Human,14,1,1,2,Auditory,TOJ,Adaptive,Duration,0.285,Auditory,0.7,Auditory,0.985,0,N/A,Filled
Human,14,1,1,3,Auditory,TOJ,Adaptive,Duration,0.27,Auditory,0.7,Auditory,0.97,1,N/A,Filled
Human,14,1,1,4,Auditory,TOJ,Adaptive,Duration,0.255,Auditory,0.7,Auditory,0.955,1,N/A,Filled
Human,14,1,1,5,Auditory,TOJ,Adaptive,Duration,0.24,Auditory,0.7,Auditory,0.94,1,N/A,Filled
Human,14,1,1,6,Auditory,TOJ,Adaptive,Duration,0.225,Auditory,0.925,Auditory,0.7,0,N/A,Filled
Human,14,1,1,7,Auditory,TOJ,Adaptive,Duration,0.21,Auditory,0.91,Auditory,0.7,1,N/A,Filled
Human,14,1,1,8,Auditory,TOJ,Adaptive,Duration,0.195,Auditory,0.7,Auditory,0.895,0,N/A,Filled
Human,14,1,1,9,Auditory,TOJ,Adaptive,Duration,0.18,Auditory,0.7,Auditory,0.88,1,N/A,Filled
Human,14,1,1,10,Auditory,TOJ,Adaptive,Duration,0.165,Auditory,0.865,Auditory,0.7,0,N/A,Filled
Human,14,1,1,11,Auditory,TOJ,Adaptive,Duration,0.15,Auditory,0.85,Auditory,0.7,1,N/A,Filled
Human,14,1,1,12,Auditory,TOJ,Adaptive,Duration,0.135,Auditory,0.7,Auditory,0.835,0,N/A,Filled
Human,14,1,1,13,Auditory,TOJ,Adaptive,Duration,0.12,Auditory,0.82,Auditory,0.7,0,N/A,Filled
Human,14,1,1,14,Auditory,TOJ,Adaptive,Duration,0.105,Auditory,0.7,Auditory,0.805,0,N/A,Filled
Human,14,1,1,15,Auditory,TOJ,Adaptive,Duration,0.15,Auditory,0.7,Auditory,0.85,0,N/A,Filled
Human,14,1,1,16,Auditory,TOJ,Adaptive,Duration,0.135,Auditory,0.7,Auditory,0.835,1,N/A,Filled
Human,14,1,1,17,Auditory,TOJ,Adaptive,Duration,0.12,Auditory,0.7,Auditory,0.82,1,N/A,Filled
Human,14,1,1,18,Auditory,TOJ,Adaptive,Duration,0.105,Auditory,0.805,Auditory,0.7,0,N/A,Filled
Human,14,1,1,19,Auditory,TOJ,Adaptive,Duration,0.09,Auditory,0.7,Auditory,0.79,0,N/A,Filled
Human,14,1,1,20,Auditory,TOJ,Adaptive,Duration,0.135,Auditory,0.835,Auditory,0.7,1,N/A,Filled
Human,14,1,1,21,Auditory,TOJ,Adaptive,Duration,0.12,Auditory,0.7,Auditory,0.82,0,N/A,Filled
Human,14,1,1,22,Auditory,TOJ,Adaptive,Duration,0.165,Auditory,0.7,Auditory,0.865,0,N/A,Filled
Human,14,1,1,23,Auditory,TOJ,Adaptive,Duration,0.15,Auditory,0.7,Auditory,0.85,1,N/A,Filled
Human,14,1,1,24,Auditory,TOJ,Adaptive,Duration,0.135,Auditory,0.7,Auditory,0.835,1,N/A,Filled
Human,14,1,1,25,Auditory,TOJ,Adaptive,Duration,0.12,Auditory,0.7,Auditory,0.82,1,N/A,Filled
Human,14,1,1,26,Auditory,TOJ,Adaptive,Duration,0.105,Auditory,0.805,Auditory,0.7,0,N/A,Filled
Human,14,1,1,27,Auditory,TOJ,Adaptive,Duration,0.09,Auditory,0.79,Auditory,0.7,1,N/A,Filled
Human,14,1,1,28,Auditory,TOJ,Adaptive,Duration,0.075,Auditory,0.775,Auditory,0.7,1,N/A,Filled
Human,14,1,1,29,Auditory,TOJ,Adaptive,Duration,0.06,Auditory,0.7,Auditory,0.76,0,N/A,Filled
Human,14,1,1,30,Auditory,TOJ,Adaptive,Duration,0.045,Auditory,0.7,Auditory,0.745,1,N/A,Filled
Human,14,1,1,31,Auditory,TOJ,Adaptive,Duration,0.075,Auditory,0.7,Auditory,0.775,0,N/A,Filled
Human,14,1,1,32,Auditory,TOJ,Adaptive,Duration,0.105,Auditory,0.805,Auditory,0.7,1,N/A,Filled
Human,14,1,1,33,Auditory,TOJ,Adaptive,Duration,0.095,Auditory,0.795,Auditory,0.7,1,N/A,Filled
Human,14,1,1,34,Auditory,TOJ,Adaptive,Duration,0.085,Auditory,0.785,Auditory,0.7,1,N/A,Filled
Human,14,1,1,35,Auditory,TOJ,Adaptive,Duration,0.075,Auditory,0.775,Auditory,0.7,1,N/A,Filled
Human,14,1,1,36,Auditory,TOJ,Adaptive,Duration,0.065,Auditory,0.7,Auditory,0.765,0,N/A,Filled
Human,14,1,1,37,Auditory,TOJ,Adaptive,Duration,0.095,Auditory,0.7,Auditory,0.795,0,N/A,Filled
Human,14,1,1,38,Auditory,TOJ,Adaptive,Duration,0.125,Auditory,0.7,Auditory,0.825,0,N/A,Filled
Human,14,1,1,39,Auditory,TOJ,Adaptive,Duration,0.115,Auditory,0.7,Auditory,0.815,1,N/A,Filled
Human,14,1,1,40,Auditory,TOJ,Adaptive,Duration,0.145,Auditory,0.845,Auditory,0.7,1,N/A,Filled
Human,14,1,1,41,Auditory,TOJ,Adaptive,Duration,0.135,Auditory,0.7,Auditory,0.835,0,N/A,Filled
Human,14,1,1,42,Auditory,TOJ,Adaptive,Duration,0.125,Auditory,0.7,Auditory,0.825,1,N/A,Filled
Human,14,1,1,43,Auditory,TOJ,Adaptive,Duration,0.155,Auditory,0.855,Auditory,0.7,1,N/A,Filled
Human,14,1,1,44,Auditory,TOJ,Adaptive,Duration,0.145,Auditory,0.7,Auditory,0.845,0,N/A,Filled
Human,14,1,1,45,Auditory,TOJ,Adaptive,Duration,0.135,Auditory,0.7,Auditory,0.835,1,N/A,Filled
Human,14,1,1,46,Auditory,TOJ,Adaptive,Duration,0.125,Auditory,0.7,Auditory,0.825,1,N/A,Filled
Human,14,1,1,47,Auditory,TOJ,Adaptive,Duration,0.115,Auditory,0.7,Auditory,0.815,1,N/A,Filled
Human,14,1,1,48,Auditory,TOJ,Adaptive,Duration,0.105,Auditory,0.7,Auditory,0.805,1,N/A,Filled
Human,14,1,1,49,Auditory,TOJ,Adaptive,Duration,0.095,Auditory,0.795,Auditory,0.7,0,N/A,Filled
Human,14,1,1,50,Auditory,TOJ,Adaptive,Duration,0.085,Auditory,0.7,Auditory,0.785,0,N/A,Filled
Human,15,1,1,1,Auditory,TOJ,Adaptive,Duration,0.3,Auditory,0.7,Auditory,1,0,N/A,Filled
Human,15,1,1,2,Auditory,TOJ,Adaptive,Duration,0.345,Auditory,0.7,Auditory,1.045,0,N/A,Filled
Human,15,1,1,3,Auditory,TOJ,Adaptive,Duration,0.33,Auditory,0.7,Auditory,1.03,1,N/A,Filled
Human,15,1,1,4,Auditory,TOJ,Adaptive,Duration,0.315,Auditory,0.7,Auditory,1.015,1,N/A,Filled
Human,15,1,1,5,Auditory,TOJ,Adaptive,Duration,0.3,Auditory,0.7,Auditory,1,1,N/A,Filled
Human,15,1,1,6,Auditory,TOJ,Adaptive,Duration,0.285,Auditory,0.7,Auditory,0.985,1,N/A,Filled
Human,15,1,1,7,Auditory,TOJ,Adaptive,Duration,0.27,Auditory,0.97,Auditory,0.7,0,N/A,Filled
Human,15,1,1,8,Auditory,TOJ,Adaptive,Duration,0.255,Auditory,0.7,Auditory,0.955,0,N/A,Filled
Human,15,1,1,9,Auditory,TOJ,Adaptive,Duration,0.3,Auditory,0.7,Auditory,1,0,N/A,Filled
Human,15,1,1,10,Auditory,TOJ,Adaptive,Duration,0.285,Auditory,0.7,Auditory,0.985,1,N/A,Filled
Human,15,1,1,11,Auditory,TOJ,Adaptive,Duration,0.27,Auditory,0.97,Auditory,0.7,0,N/A,Filled
Human,15,1,1,12,Auditory,TOJ,Adaptive,Duration,0.255,Auditory,0.955,Auditory,0.7,1,N/A,Filled
Human,15,1,1,13,Auditory,TOJ,Adaptive,Duration,0.24,Auditory,0.7,Auditory,0.94,0,N/A,Filled
Human,15,1,1,14,Auditory,TOJ,Adaptive,Duration,0.225,Auditory,0.925,Auditory,0.7,0,N/A,Filled
Human,15,1,1,15,Auditory,TOJ,Adaptive,Duration,0.21,Auditory,0.91,Auditory,0.7,1,N/A,Filled
Human,15,1,1,16,Auditory,TOJ,Adaptive,Duration,0.195,Auditory,0.7,Auditory,0.895,0,N/A,Filled
Human,15,1,1,17,Auditory,TOJ,Adaptive,Duration,0.24,Auditory,0.94,Auditory,0.7,1,N/A,Filled
Human,15,1,1,18,Auditory,TOJ,Adaptive,Duration,0.225,Auditory,0.7,Auditory,0.925,0,N/A,Filled
Human,15,1,1,19,Auditory,TOJ,Adaptive,Duration,0.21,Auditory,0.91,Auditory,0.7,0,N/A,Filled
Human,15,1,1,20,Auditory,TOJ,Adaptive,Duration,0.195,Auditory,0.895,Auditory,0.7,1,N/A,Filled
Human,15,1,1,21,Auditory,TOJ,Adaptive,Duration,0.18,Auditory,0.7,Auditory,0.88,0,N/A,Filled
Human,15,1,1,22,Auditory,TOJ,Adaptive,Duration,0.165,Auditory,0.7,Auditory,0.865,1,N/A,Filled
Human,15,1,1,23,Auditory,TOJ,Adaptive,Duration,0.15,Auditory,0.7,Auditory,0.85,1,N/A,Filled
Human,15,1,1,24,Auditory,TOJ,Adaptive,Duration,0.135,Auditory,0.7,Auditory,0.835,1,N/A,Filled
Human,15,1,1,25,Auditory,TOJ,Adaptive,Duration,0.12,Auditory,0.7,Auditory,0.82,1,N/A,Filled
Human,15,1,1,26,Auditory,TOJ,Adaptive,Duration,0.165,Auditory,0.865,Auditory,0.7,1,N/A,Filled
Human,15,1,1,27,Auditory,TOJ,Adaptive,Duration,0.15,Auditory,0.7,Auditory,0.85,0,N/A,Filled
Human,15,1,1,28,Auditory,TOJ,Adaptive,Duration,0.195,Auditory,0.7,Auditory,0.895,0,N/A,Filled
Human,15,1,1,29,Auditory,TOJ,Adaptive,Duration,0.24,Auditory,0.94,Auditory,0.7,1,N/A,Filled
Human,15,1,1,30,Auditory,TOJ,Adaptive,Duration,0.225,Auditory,0.7,Auditory,0.925,0,N/A,Filled
Human,15,1,1,31,Auditory,TOJ,Adaptive,Duration,0.255,Auditory,0.955,Auditory,0.7,1,N/A,Filled
Human,15,1,1,32,Auditory,TOJ,Adaptive,Duration,0.245,Auditory,0.7,Auditory,0.945,0,N/A,Filled
Human,15,1,1,33,Auditory,TOJ,Adaptive,Duration,0.235,Auditory,0.935,Auditory,0.7,0,N/A,Filled
Human,15,1,1,34,Auditory,TOJ,Adaptive,Duration,0.225,Auditory,0.925,Auditory,0.7,1,N/A,Filled
Human,15,1,1,35,Auditory,TOJ,Adaptive,Duration,0.215,Auditory,0.7,Auditory,0.915,0,N/A,Filled
Human,15,1,1,36,Auditory,TOJ,Adaptive,Duration,0.205,Auditory,0.905,Auditory,0.7,0,N/A,Filled
Human,15,1,1,37,Auditory,TOJ,Adaptive,Duration,0.235,Auditory,0.935,Auditory,0.7,0,N/A,Filled
Human,15,1,1,38,Auditory,TOJ,Adaptive,Duration,0.225,Auditory,0.7,Auditory,0.925,0,N/A,Filled
Human,15,1,1,39,Auditory,TOJ,Adaptive,Duration,0.215,Auditory,0.915,Auditory,0.7,0,N/A,Filled
Human,15,1,1,40,Auditory,TOJ,Adaptive,Duration,0.205,Auditory,0.905,Auditory,0.7,1,N/A,Filled
Human,15,1,1,41,Auditory,TOJ,Adaptive,Duration,0.195,Auditory,0.895,Auditory,0.7,1,N/A,Filled
Human,15,1,1,42,Auditory,TOJ,Adaptive,Duration,0.185,Auditory,0.7,Auditory,0.885,0,N/A,Filled
Human,15,1,1,43,Auditory,TOJ,Adaptive,Duration,0.215,Auditory,0.7,Auditory,0.915,0,N/A,Filled
Human,15,1,1,44,Auditory,TOJ,Adaptive,Duration,0.205,Auditory,0.7,Auditory,0.905,1,N/A,Filled
Human,15,1,1,45,Auditory,TOJ,Adaptive,Duration,0.195,Auditory,0.895,Auditory,0.7,0,N/A,Filled
Human,15,1,1,46,Auditory,TOJ,Adaptive,Duration,0.185,Auditory,0.885,Auditory,0.7,1,N/A,Filled
Human,15,1,1,47,Auditory,TOJ,Adaptive,Duration,0.175,Auditory,0.7,Auditory,0.875,0,N/A,Filled
Human,15,1,1,48,Auditory,TOJ,Adaptive,Duration,0.165,Auditory,0.7,Auditory,0.865,1,N/A,Filled
Human,15,1,1,49,Auditory,TOJ,Adaptive,Duration,0.155,Auditory,0.855,Auditory,0.7,0,N/A,Filled
Human,15,1,1,50,Auditory,TOJ,Adaptive,Duration,0.145,Auditory,0.7,Auditory,0.845,0,N/A,Filled
Human,16,1,1,1,Auditory,TOJ,Adaptive,Duration,0.3,Auditory,1,Auditory,0.7,0,N/A,Filled
Human,16,1,1,2,Auditory,TOJ,Adaptive,Duration,0.285,Auditory,0.7,Auditory,0.985,0,N/A,Filled
Human,16,1,1,3,Auditory,TOJ,Adaptive,Duration,0.27,Auditory,0.7,Auditory,0.97,1,N/A,Filled
Human,16,1,1,4,Auditory,TOJ,Adaptive,Duration,0.255,Auditory,0.955,Auditory,0.7,0,N/A,Filled
Human,16,1,1,5,Auditory,TOJ,Adaptive,Duration,0.3,Auditory,1,Auditory,0.7,0,N/A,Filled
Human,16,1,1,6,Auditory,TOJ,Adaptive,Duration,0.285,Auditory,0.7,Auditory,0.985,0,N/A,Filled
Human,16,1,1,7,Auditory,TOJ,Adaptive,Duration,0.27,Auditory,0.7,Auditory,0.97,1,N/A,Filled
Human,16,1,1,8,Auditory,TOJ,Adaptive,Duration,0.255,Auditory,0.7,Auditory,0.955,1,N/A,Filled
Human,16,1,1,9,Auditory,TOJ,Adaptive,Duration,0.24,Auditory,0.7,Auditory,0.94,1,N/A,Filled
Human,16,1,1,10,Auditory,TOJ,Adaptive,Duration,0.225,Auditory,0.925,Auditory,0.7,0,N/A,Filled
Human,16,1,1,11,Auditory,TOJ,Adaptive,Duration,0.27,Auditory,0.97,Auditory,0.7,0,N/A,Filled
Human,16,1,1,12,Auditory,TOJ,Adaptive,Duration,0.315,Auditory,0.7,Auditory,1.015,1,N/A,Filled
Human,16,1,1,13,Auditory,TOJ,Adaptive,Duration,0.3,Auditory,1,Auditory,0.7,0,N/A,Filled
Human,16,1,1,14,Auditory,TOJ,Adaptive,Duration,0.285,Auditory,0.7,Auditory,0.985,0,N/A,Filled
Human,16,1,1,15,Auditory,TOJ,Adaptive,Duration,0.27,Auditory,0.7,Auditory,0.97,1,N/A,Filled
Human,16,1,1,16,Auditory,TOJ,Adaptive,Duration,0.255,Auditory,0.955,Auditory,0.7,0,N/A,Filled
Human,16,1,1,17,Auditory,TOJ,Adaptive,Duration,0.24,Auditory,0.94,Auditory,0.7,1,N/A,Filled
Human,16,1,1,18,Auditory,TOJ,Adaptive,Duration,0.225,Auditory,0.925,Auditory,0.7,1,N/A,Filled
Human,16,1,1,19,Auditory,TOJ,Adaptive,Duration,0.21,Auditory,0.91,Auditory,0.7,1,N/A,Filled
Human,16,1,1,20,Auditory,TOJ,Adaptive,Duration,0.195,Auditory,0.895,Auditory,0.7,1,N/A,Filled
Human,16,1,1,21,Auditory,TOJ,Adaptive,Duration,0.24,Auditory,0.7,Auditory,0.94,1,N/A,Filled
Human,16,1,1,22,Auditory,TOJ,Adaptive,Duration,0.225,Auditory,0.925,Auditory,0.7,0,N/A,Filled
Human,16,1,1,23,Auditory,TOJ,Adaptive,Duration,0.27,Auditory,0.97,Auditory,0.7,0,N/A,Filled
Human,16,1,1,24,Auditory,TOJ,Adaptive,Duration,0.315,Auditory,1.015,Auditory,0.7,0,N/A,Filled
Human,16,1,1,25,Auditory,TOJ,Adaptive,Duration,0.3,Auditory,0.7,Auditory,1,0,N/A,Filled
Human,16,1,1,26,Auditory,TOJ,Adaptive,Duration,0.285,Auditory,0.7,Auditory,0.985,1,N/A,Filled
Human,16,1,1,27,Auditory,TOJ,Adaptive,Duration,0.27,Auditory,0.97,Auditory,0.7,0,N/A,Filled
Human,16,1,1,28,Auditory,TOJ,Adaptive,Duration,0.315,Auditory,0.7,Auditory,1.015,1,N/A,Filled
Human,16,1,1,29,Auditory,TOJ,Adaptive,Duration,0.3,Auditory,0.7,Auditory,1,1,N/A,Filled
Human,16,1,1,30,Auditory,TOJ,Adaptive,Duration,0.285,Auditory,0.7,Auditory,0.985,1,N/A,Filled
Human,16,1,1,31,Auditory,TOJ,Adaptive,Duration,0.275,Auditory,0.975,Auditory,0.7,0,N/A,Filled
Human,16,1,1,32,Auditory,TOJ,Adaptive,Duration,0.305,Auditory,1.005,Auditory,0.7,0,N/A,Filled
Human,16,1,1,33,Auditory,TOJ,Adaptive,Duration,0.335,Auditory,1.035,Auditory,0.7,0,N/A,Filled
Human,16,1,1,34,Auditory,TOJ,Adaptive,Duration,0.365,Auditory,1.065,Auditory,0.7,0,N/A,Filled
Human,16,1,1,35,Auditory,TOJ,Adaptive,Duration,0.355,Auditory,0.7,Auditory,1.055,0,N/A,Filled
Human,16,1,1,36,Auditory,TOJ,Adaptive,Duration,0.345,Auditory,1.045,Auditory,0.7,0,N/A,Filled
Human,16,1,1,37,Auditory,TOJ,Adaptive,Duration,0.375,Auditory,0.7,Auditory,1.075,1,N/A,Filled
Human,16,1,1,38,Auditory,TOJ,Adaptive,Duration,0.365,Auditory,1.065,Auditory,0.7,0,N/A,Filled
Human,16,1,1,39,Auditory,TOJ,Adaptive,Duration,0.355,Auditory,1.055,Auditory,0.7,1,N/A,Filled
Human,16,1,1,40,Auditory,TOJ,Adaptive,Duration,0.385,Auditory,0.7,Auditory,1.085,1,N/A,Filled
Human,16,1,1,41,Auditory,TOJ,Adaptive,Duration,0.375,Auditory,1.075,Auditory,0.7,0,N/A,Filled
Human,16,1,1,42,Auditory,TOJ,Adaptive,Duration,0.405,Auditory,1.105,Auditory,0.7,0,N/A,Filled
Human,16,1,1,43,Auditory,TOJ,Adaptive,Duration,0.395,Auditory,0.7,Auditory,1.095,0,N/A,Filled
Human,16,1,1,44,Auditory,TOJ,Adaptive,Duration,0.385,Auditory,0.7,Auditory,1.085,1,N/A,Filled
Human,16,1,1,45,Auditory,TOJ,Adaptive,Duration,0.375,Auditory,1.075,Auditory,0.7,0,N/A,Filled
Human,16,1,1,46,Auditory,TOJ,Adaptive,Duration,0.365,Auditory,0.7,Auditory,1.065,0,N/A,Filled
Human,16,1,1,47,Auditory,TOJ,Adaptive,Duration,0.355,Auditory,0.7,Auditory,1.055,1,N/A,Filled
Human,16,1,1,48,Auditory,TOJ,Adaptive,Duration,0.345,Auditory,1.045,Auditory,0.7,0,N/A,Filled
Human,16,1,1,49,Auditory,TOJ,Adaptive,Duration,0.335,Auditory,1.035,Auditory,0.7,1,N/A,Filled
Human,16,1,1,50,Auditory,TOJ,Adaptive,Duration,0.325,Auditory,0.7,Auditory,1.025,0,N/A,Filled
Human,17,1,1,1,Auditory,TOJ,Adaptive,Duration,0.3,Auditory,0.7,Auditory,1,0,N/A,Filled
Human,17,1,1,2,Auditory,TOJ,Adaptive,Duration,0.285,Auditory,0.7,Auditory,0.985,1,N/A,Filled
Human,17,1,1,3,Auditory,TOJ,Adaptive,Duration,0.27,Auditory,0.7,Auditory,0.97,1,N/A,Filled
Human,17,1,1,4,Auditory,TOJ,Adaptive,Duration,0.255,Auditory,0.955,Auditory,0.7,0,N/A,Filled
Human,17,1,1,5,Auditory,TOJ,Adaptive,Duration,0.24,Auditory,0.94,Auditory,0.7,1,N/A,Filled
Human,17,1,1,6,Auditory,TOJ,Adaptive,Duration,0.225,Auditory,0.7,Auditory,0.925,0,N/A,Filled
Human,17,1,1,7,Auditory,TOJ,Adaptive,Duration,0.21,Auditory,0.91,Auditory,0.7,0,N/A,Filled
Human,17,1,1,8,Auditory,TOJ,Adaptive,Duration,0.195,Auditory,0.7,Auditory,0.895,0,N/A,Filled
Human,17,1,1,9,Auditory,TOJ,Adaptive,Duration,0.18,Auditory,0.88,Auditory,0.7,0,N/A,Filled
Human,17,1,1,10,Auditory,TOJ,Adaptive,Duration,0.165,Auditory,0.7,Auditory,0.865,0,N/A,Filled
Human,17,1,1,11,Auditory,TOJ,Adaptive,Duration,0.15,Auditory,0.7,Auditory,0.85,1,N/A,Filled
Human,17,1,1,12,Auditory,TOJ,Adaptive,Duration,0.135,Auditory,0.7,Auditory,0.835,1,N/A,Filled
Human,17,1,1,13,Auditory,TOJ,Adaptive,Duration,0.12,Auditory,0.82,Auditory,0.7,0,N/A,Filled
Human,17,1,1,14,Auditory,TOJ,Adaptive,Duration,0.105,Auditory,0.805,Auditory,0.7,1,N/A,Filled
Human,17,1,1,15,Auditory,TOJ,Adaptive,Duration,0.09,Auditory,0.7,Auditory,0.79,0,N/A,Filled
Human,17,1,1,16,Auditory,TOJ,Adaptive,Duration,0.075,Auditory,0.775,Auditory,0.7,0,N/A,Filled
Human,17,1,1,17,Auditory,TOJ,Adaptive,Duration,0.06,Auditory,0.7,Auditory,0.76,0,N/A,Filled
Human,17,1,1,18,Auditory,TOJ,Adaptive,Duration,0.045,Auditory,0.7,Auditory,0.745,1,N/A,Filled
Human,17,1,1,19,Auditory,TOJ,Adaptive,Duration,0.09,Auditory,0.7,Auditory,0.79,0,N/A,Filled
Human,17,1,1,20,Auditory,TOJ,Adaptive,Duration,0.075,Auditory,0.7,Auditory,0.775,1,N/A,Filled
Human,17,1,1,21,Auditory,TOJ,Adaptive,Duration,0.06,Auditory,0.76,Auditory,0.7,0,N/A,Filled
Human,17,1,1,22,Auditory,TOJ,Adaptive,Duration,0.045,Auditory,0.745,Auditory,0.7,1,N/A,Filled
Human,17,1,1,23,Auditory,TOJ,Adaptive,Duration,0.03,Auditory,0.73,Auditory,0.7,1,N/A,Filled
Human,17,1,1,24,Auditory,TOJ,Adaptive,Duration,0.075,Auditory,0.7,Auditory,0.775,1,N/A,Filled
Human,17,1,1,25,Auditory,TOJ,Adaptive,Duration,0.06,Auditory,0.76,Auditory,0.7,0,N/A,Filled
Human,17,1,1,26,Auditory,TOJ,Adaptive,Duration,0.045,Auditory,0.7,Auditory,0.745,0,N/A,Filled
Human,17,1,1,27,Auditory,TOJ,Adaptive,Duration,0.03,Auditory,0.73,Auditory,0.7,0,N/A,Filled
Human,17,1,1,28,Auditory,TOJ,Adaptive,Duration,0.015,Auditory,0.7,Auditory,0.715,0,N/A,Filled
Human,17,1,1,29,Auditory,TOJ,Adaptive,Duration,0.015,Auditory,0.7,Auditory,0.715,1,N/A,Filled
Human,17,1,1,30,Auditory,TOJ,Adaptive,Duration,0.06,Auditory,0.76,Auditory,0.7,1,N/A,Filled
Human,17,1,1,31,Auditory,TOJ,Adaptive,Duration,0.09,Auditory,0.7,Auditory,0.79,1,N/A,Filled
Human,17,1,1,32,Auditory,TOJ,Adaptive,Duration,0.08,Auditory,0.78,Auditory,0.7,0,N/A,Filled
Human,17,1,1,33,Auditory,TOJ,Adaptive,Duration,0.07,Auditory,0.7,Auditory,0.77,0,N/A,Filled
Human,17,1,1,34,Auditory,TOJ,Adaptive,Duration,0.06,Auditory,0.76,Auditory,0.7,0,N/A,Filled
Human,17,1,1,35,Auditory,TOJ,Adaptive,Duration,0.05,Auditory,0.7,Auditory,0.75,0,N/A,Filled
Human,17,1,1,36,Auditory,TOJ,Adaptive,Duration,0.04,Auditory,0.74,Auditory,0.7,0,N/A,Filled
Human,17,1,1,37,Auditory,TOJ,Adaptive,Duration,0.07,Auditory,0.77,Auditory,0.7,0,N/A,Filled
Human,17,1,1,38,Auditory,TOJ,Adaptive,Duration,0.06,Auditory,0.7,Auditory,0.76,0,N/A,Filled
Human,17,1,1,39,Auditory,TOJ,Adaptive,Duration,0.05,Auditory,0.75,Auditory,0.7,0,N/A,Filled
Human,17,1,1,40,Auditory,TOJ,Adaptive,Duration,0.04,Auditory,0.7,Auditory,0.74,0,N/A,Filled
Human,17,1,1,41,Auditory,TOJ,Adaptive,Duration,0.07,Auditory,0.77,Auditory,0.7,1,N/A,Filled
Human,17,1,1,42,Auditory,TOJ,Adaptive,Duration,0.06,Auditory,0.7,Auditory,0.76,0,N/A,Filled
Human,17,1,1,43,Auditory,TOJ,Adaptive,Duration,0.05,Auditory,0.75,Auditory,0.7,0,N/A,Filled
Human,17,1,1,44,Auditory,TOJ,Adaptive,Duration,0.04,Auditory,0.74,Auditory,0.7,1,N/A,Filled
Human,17,1,1,45,Auditory,TOJ,Adaptive,Duration,0.07,Auditory,0.7,Auditory,0.77,1,N/A,Filled
Human,17,1,1,46,Auditory,TOJ,Adaptive,Duration,0.1,Auditory,0.8,Auditory,0.7,1,N/A,Filled
Human,17,1,1,47,Auditory,TOJ,Adaptive,Duration,0.13,Auditory,0.83,Auditory,0.7,0,N/A,Filled
Human,17,1,1,48,Auditory,TOJ,Adaptive,Duration,0.12,Auditory,0.82,Auditory,0.7,1,N/A,Filled
Human,17,1,1,49,Auditory,TOJ,Adaptive,Duration,0.11,Auditory,0.7,Auditory,0.81,0,N/A,Filled
Human,17,1,1,50,Auditory,TOJ,Adaptive,Duration,0.1,Auditory,0.7,Auditory,0.8,1,N/A,Filled
Human,18,1,1,1,Auditory,TOJ,Adaptive,Duration,0.3,Auditory,0.7,Auditory,1,0,N/A,Filled
Human,18,1,1,2,Auditory,TOJ,Adaptive,Duration,0.285,Auditory,0.7,Auditory,0.985,1,N/A,Filled
Human,18,1,1,3,Auditory,TOJ,Adaptive,Duration,0.27,Auditory,0.97,Auditory,0.7,0,N/A,Filled
Human,18,1,1,4,Auditory,TOJ,Adaptive,Duration,0.255,Auditory,0.955,Auditory,0.7,1,N/A,Filled
Human,18,1,1,5,Auditory,TOJ,Adaptive,Duration,0.24,Auditory,0.94,Auditory,0.7,1,N/A,Filled
Human,18,1,1,6,Auditory,TOJ,Adaptive,Duration,0.225,Auditory,0.7,Auditory,0.925,0,N/A,Filled
Human,18,1,1,7,Auditory,TOJ,Adaptive,Duration,0.21,Auditory,0.91,Auditory,0.7,0,N/A,Filled
Human,18,1,1,8,Auditory,TOJ,Adaptive,Duration,0.195,Auditory,0.7,Auditory,0.895,0,N/A,Filled
Human,18,1,1,9,Auditory,TOJ,Adaptive,Duration,0.18,Auditory,0.88,Auditory,0.7,0,N/A,Filled
Human,18,1,1,10,Auditory,TOJ,Adaptive,Duration,0.165,Auditory,0.7,Auditory,0.865,0,N/A,Filled
Human,18,1,1,11,Auditory,TOJ,Adaptive,Duration,0.15,Auditory,0.7,Auditory,0.85,1,N/A,Filled
Human,18,1,1,12,Auditory,TOJ,Adaptive,Duration,0.135,Auditory,0.835,Auditory,0.7,0,N/A,Filled
Human,18,1,1,13,Auditory,TOJ,Adaptive,Duration,0.12,Auditory,0.82,Auditory,0.7,1,N/A,Filled
Human,18,1,1,14,Auditory,TOJ,Adaptive,Duration,0.105,Auditory,0.7,Auditory,0.805,0,N/A,Filled
Human,18,1,1,15,Auditory,TOJ,Adaptive,Duration,0.09,Auditory,0.79,Auditory,0.7,0,N/A,Filled
Human,18,1,1,16,Auditory,TOJ,Adaptive,Duration,0.075,Auditory,0.7,Auditory,0.775,0,N/A,Filled
Human,18,1,1,17,Auditory,TOJ,Adaptive,Duration,0.06,Auditory,0.76,Auditory,0.7,0,N/A,Filled
Human,18,1,1,18,Auditory,TOJ,Adaptive,Duration,0.045,Auditory,0.745,Auditory,0.7,1,N/A,Filled
Human,18,1,1,19,Auditory,TOJ,Adaptive,Duration,0.09,Auditory,0.7,Auditory,0.79,1,N/A,Filled
Human,18,1,1,20,Auditory,TOJ,Adaptive,Duration,0.075,Auditory,0.7,Auditory,0.775,1,N/A,Filled
Human,18,1,1,21,Auditory,TOJ,Adaptive,Duration,0.06,Auditory,0.7,Auditory,0.76,1,N/A,Filled
Human,18,1,1,22,Auditory,TOJ,Adaptive,Duration,0.045,Auditory,0.7,Auditory,0.745,1,N/A,Filled
Human,18,1,1,23,Auditory,TOJ,Adaptive,Duration,0.03,Auditory,0.73,Auditory,0.7,0,N/A,Filled
Human,18,1,1,24,Auditory,TOJ,Adaptive,Duration,0.075,Auditory,0.7,Auditory,0.775,1,N/A,Filled
Human,18,1,1,25,Auditory,TOJ,Adaptive,Duration,0.06,Auditory,0.7,Auditory,0.76,1,N/A,Filled
Human,18,1,1,26,Auditory,TOJ,Adaptive,Duration,0.045,Auditory,0.745,Auditory,0.7,0,N/A,Filled
Human,18,1,1,27,Auditory,TOJ,Adaptive,Duration,0.03,Auditory,0.73,Auditory,0.7,1,N/A,Filled
Human,18,1,1,28,Auditory,TOJ,Adaptive,Duration,0.015,Auditory,0.715,Auditory,0.7,1,N/A,Filled
Human,18,1,1,29,Auditory,TOJ,Adaptive,Duration,0.015,Auditory,0.715,Auditory,0.7,1,N/A,Filled
Human,18,1,1,30,Auditory,TOJ,Adaptive,Duration,0.06,Auditory,0.7,Auditory,0.76,1,N/A,Filled
Human,18,1,1,31,Auditory,TOJ,Adaptive,Duration,0.05,Auditory,0.75,Auditory,0.7,0,N/A,Filled
Human,18,1,1,32,Auditory,TOJ,Adaptive,Duration,0.08,Auditory,0.78,Auditory,0.7,0,N/A,Filled
Human,18,1,1,33,Auditory,TOJ,Adaptive,Duration,0.11,Auditory,0.7,Auditory,0.81,1,N/A,Filled
Human,18,1,1,34,Auditory,TOJ,Adaptive,Duration,0.1,Auditory,0.8,Auditory,0.7,0,N/A,Filled
Human,18,1,1,35,Auditory,TOJ,Adaptive,Duration,0.09,Auditory,0.79,Auditory,0.7,1,N/A,Filled
Human,18,1,1,36,Auditory,TOJ,Adaptive,Duration,0.08,Auditory,0.7,Auditory,0.78,0,N/A,Filled
Human,18,1,1,37,Auditory,TOJ,Adaptive,Duration,0.07,Auditory,0.7,Auditory,0.77,1,N/A,Filled
Human,18,1,1,38,Auditory,TOJ,Adaptive,Duration,0.06,Auditory,0.76,Auditory,0.7,0,N/A,Filled
Human,18,1,1,39,Auditory,TOJ,Adaptive,Duration,0.09,Auditory,0.79,Auditory,0.7,0,N/A,Filled
Human,18,1,1,40,Auditory,TOJ,Adaptive,Duration,0.08,Auditory,0.7,Auditory,0.78,0,N/A,Filled
Human,18,1,1,41,Auditory,TOJ,Adaptive,Duration,0.07,Auditory,0.7,Auditory,0.77,1,N/A,Filled
Human,18,1,1,42,Auditory,TOJ,Adaptive,Duration,0.06,Auditory,0.7,Auditory,0.76,1,N/A,Filled
Human,18,1,1,43,Auditory,TOJ,Adaptive,Duration,0.05,Auditory,0.75,Auditory,0.7,0,N/A,Filled
Human,18,1,1,44,Auditory,TOJ,Adaptive,Duration,0.04,Auditory,0.74,Auditory,0.7,1,N/A,Filled
Human,18,1,1,45,Auditory,TOJ,Adaptive,Duration,0.07,Auditory,0.77,Auditory,0.7,0,N/A,Filled
Human,18,1,1,46,Auditory,TOJ,Adaptive,Duration,0.06,Auditory,0.76,Auditory,0.7,1,N/A,Filled
Human,18,1,1,47,Auditory,TOJ,Adaptive,Duration,0.05,Auditory,0.7,Auditory,0.75,0,N/A,Filled
Human,18,1,1,48,Auditory,TOJ,Adaptive,Duration,0.04,Auditory,0.7,Auditory,0.74,1,N/A,Filled
Human,18,1,1,49,Auditory,TOJ,Adaptive,Duration,0.03,Auditory,0.7,Auditory,0.73,1,N/A,Filled
Human,18,1,1,50,Auditory,TOJ,Adaptive,Duration,0.02,Auditory,0.7,Auditory,0.72,1,N/A,Filled
Human,19,1,1,1,Auditory,TOJ,Adaptive,Duration,0.3,Auditory,1,Auditory,0.7,0,N/A,Filled
Human,19,1,1,2,Auditory,TOJ,Adaptive,Duration,0.285,Auditory,0.985,Auditory,0.7,1,N/A,Filled
Human,19,1,1,3,Auditory,TOJ,Adaptive,Duration,0.27,Auditory,0.97,Auditory,0.7,1,N/A,Filled
Human,19,1,1,4,Auditory,TOJ,Adaptive,Duration,0.255,Auditory,0.7,Auditory,0.955,0,N/A,Filled
Human,19,1,1,5,Auditory,TOJ,Adaptive,Duration,0.24,Auditory,0.94,Auditory,0.7,0,N/A,Filled
Human,19,1,1,6,Auditory,TOJ,Adaptive,Duration,0.225,Auditory,0.925,Auditory,0.7,1,N/A,Filled
Human,19,1,1,7,Auditory,TOJ,Adaptive,Duration,0.27,Auditory,0.7,Auditory,0.97,1,N/A,Filled
Human,19,1,1,8,Auditory,TOJ,Adaptive,Duration,0.255,Auditory,0.955,Auditory,0.7,0,N/A,Filled
Human,19,1,1,9,Auditory,TOJ,Adaptive,Duration,0.24,Auditory,0.7,Auditory,0.94,0,N/A,Filled
Human,19,1,1,10,Auditory,TOJ,Adaptive,Duration,0.225,Auditory,0.925,Auditory,0.7,0,N/A,Filled
Human,19,1,1,11,Auditory,TOJ,Adaptive,Duration,0.21,Auditory,0.91,Auditory,0.7,1,N/A,Filled
Human,19,1,1,12,Auditory,TOJ,Adaptive,Duration,0.195,Auditory,0.895,Auditory,0.7,1,N/A,Filled
Human,19,1,1,13,Auditory,TOJ,Adaptive,Duration,0.18,Auditory,0.7,Auditory,0.88,0,N/A,Filled
Human,19,1,1,14,Auditory,TOJ,Adaptive,Duration,0.165,Auditory,0.7,Auditory,0.865,1,N/A,Filled
Human,19,1,1,15,Auditory,TOJ,Adaptive,Duration,0.15,Auditory,0.7,Auditory,0.85,1,N/A,Filled
Human,19,1,1,16,Auditory,TOJ,Adaptive,Duration,0.135,Auditory,0.835,Auditory,0.7,0,N/A,Filled
Human,19,1,1,17,Auditory,TOJ,Adaptive,Duration,0.12,Auditory,0.7,Auditory,0.82,0,N/A,Filled
Human,19,1,1,18,Auditory,TOJ,Adaptive,Duration,0.105,Auditory,0.7,Auditory,0.805,1,N/A,Filled
Human,19,1,1,19,Auditory,TOJ,Adaptive,Duration,0.15,Auditory,0.7,Auditory,0.85,0,N/A,Filled
Human,19,1,1,20,Auditory,TOJ,Adaptive,Duration,0.195,Auditory,0.895,Auditory,0.7,1,N/A,Filled
Human,19,1,1,21,Auditory,TOJ,Adaptive,Duration,0.18,Auditory,0.7,Auditory,0.88,0,N/A,Filled
Human,19,1,1,22,Auditory,TOJ,Adaptive,Duration,0.165,Auditory,0.865,Auditory,0.7,0,N/A,Filled
Human,19,1,1,23,Auditory,TOJ,Adaptive,Duration,0.15,Auditory,0.7,Auditory,0.85,0,N/A,Filled
Human,19,1,1,24,Auditory,TOJ,Adaptive,Duration,0.135,Auditory,0.7,Auditory,0.835,1,N/A,Filled
Human,19,1,1,25,Auditory,TOJ,Adaptive,Duration,0.12,Auditory,0.7,Auditory,0.82,1,N/A,Filled
Human,19,1,1,26,Auditory,TOJ,Adaptive,Duration,0.105,Auditory,0.7,Auditory,0.805,1,N/A,Filled
Human,19,1,1,27,Auditory,TOJ,Adaptive,Duration,0.15,Auditory,0.7,Auditory,0.85,0,N/A,Filled
Human,19,1,1,28,Auditory,TOJ,Adaptive,Duration,0.135,Auditory,0.835,Auditory,0.7,0,N/A,Filled
Human,19,1,1,29,Auditory,TOJ,Adaptive,Duration,0.12,Auditory,0.82,Auditory,0.7,1,N/A,Filled
Human,19,1,1,30,Auditory,TOJ,Adaptive,Duration,0.165,Auditory,0.865,Auditory,0.7,0,N/A,Filled
Human,19,1,1,31,Auditory,TOJ,Adaptive,Duration,0.155,Auditory,0.855,Auditory,0.7,1,N/A,Filled
Human,19,1,1,32,Auditory,TOJ,Adaptive,Duration,0.145,Auditory,0.845,Auditory,0.7,1,N/A,Filled
Human,19,1,1,33,Auditory,TOJ,Adaptive,Duration,0.135,Auditory,0.835,Auditory,0.7,1,N/A,Filled
Human,19,1,1,34,Auditory,TOJ,Adaptive,Duration,0.165,Auditory,0.865,Auditory,0.7,0,N/A,Filled
Human,19,1,1,35,Auditory,TOJ,Adaptive,Duration,0.155,Auditory,0.7,Auditory,0.855,0,N/A,Filled
Human,19,1,1,36,Auditory,TOJ,Adaptive,Duration,0.145,Auditory,0.7,Auditory,0.845,1,N/A,Filled
Human,19,1,1,37,Auditory,TOJ,Adaptive,Duration,0.175,Auditory,0.875,Auditory,0.7,1,N/A,Filled
Human,19,1,1,38,Auditory,TOJ,Adaptive,Duration,0.165,Auditory,0.7,Auditory,0.865,0,N/A,Filled
Human,19,1,1,39,Auditory,TOJ,Adaptive,Duration,0.155,Auditory,0.7,Auditory,0.855,1,N/A,Filled
Human,19,1,1,40,Auditory,TOJ,Adaptive,Duration,0.145,Auditory,0.7,Auditory,0.845,1,N/A,Filled
Human,19,1,1,41,Auditory,TOJ,Adaptive,Duration,0.135,Auditory,0.7,Auditory,0.835,1,N/A,Filled
Human,19,1,1,42,Auditory,TOJ,Adaptive,Duration,0.125,Auditory,0.7,Auditory,0.825,1,N/A,Filled
Human,19,1,1,43,Auditory,TOJ,Adaptive,Duration,0.115,Auditory,0.7,Auditory,0.815,1,N/A,Filled
Human,19,1,1,44,Auditory,TOJ,Adaptive,Duration,0.105,Auditory,0.7,Auditory,0.805,1,N/A,Filled
Human,19,1,1,45,Auditory,TOJ,Adaptive,Duration,0.095,Auditory,0.7,Auditory,0.795,1,N/A,Filled
Human,19,1,1,46,Auditory,TOJ,Adaptive,Duration,0.085,Auditory,0.7,Auditory,0.785,1,N/A,Filled
Human,19,1,1,47,Auditory,TOJ,Adaptive,Duration,0.115,Auditory,0.815,Auditory,0.7,1,N/A,Filled
Human,19,1,1,48,Auditory,TOJ,Adaptive,Duration,0.105,Auditory,0.7,Auditory,0.805,0,N/A,Filled
Human,19,1,1,49,Auditory,TOJ,Adaptive,Duration,0.095,Auditory,0.7,Auditory,0.795,1,N/A,Filled
Human,19,1,1,50,Auditory,TOJ,Adaptive,Duration,0.085,Auditory,0.7,Auditory,0.785,1,N/A,Filled
Human,20,1,1,1,Auditory,TOJ,Adaptive,Duration,0.3,Auditory,1,Auditory,0.7,0,N/A,Filled
Human,20,1,1,2,Auditory,TOJ,Adaptive,Duration,0.285,Auditory,0.985,Auditory,0.7,1,N/A,Filled
Human,20,1,1,3,Auditory,TOJ,Adaptive,Duration,0.27,Auditory,0.97,Auditory,0.7,1,N/A,Filled
Human,20,1,1,4,Auditory,TOJ,Adaptive,Duration,0.255,Auditory,0.955,Auditory,0.7,1,N/A,Filled
Human,20,1,1,5,Auditory,TOJ,Adaptive,Duration,0.24,Auditory,0.94,Auditory,0.7,1,N/A,Filled
Human,20,1,1,6,Auditory,TOJ,Adaptive,Duration,0.225,Auditory,0.7,Auditory,0.925,0,N/A,Filled
Human,20,1,1,7,Auditory,TOJ,Adaptive,Duration,0.21,Auditory,0.91,Auditory,0.7,0,N/A,Filled
Human,20,1,1,8,Auditory,TOJ,Adaptive,Duration,0.195,Auditory,0.895,Auditory,0.7,1,N/A,Filled
Human,20,1,1,9,Auditory,TOJ,Adaptive,Duration,0.18,Auditory,0.88,Auditory,0.7,1,N/A,Filled
Human,20,1,1,10,Auditory,TOJ,Adaptive,Duration,0.225,Auditory,0.925,Auditory,0.7,0,N/A,Filled
Human,20,1,1,11,Auditory,TOJ,Adaptive,Duration,0.21,Auditory,0.91,Auditory,0.7,1,N/A,Filled
Human,20,1,1,12,Auditory,TOJ,Adaptive,Duration,0.255,Auditory,0.7,Auditory,0.955,1,N/A,Filled
Human,20,1,1,13,Auditory,TOJ,Adaptive,Duration,0.24,Auditory,0.7,Auditory,0.94,1,N/A,Filled
Human,20,1,1,14,Auditory,TOJ,Adaptive,Duration,0.225,Auditory,0.925,Auditory,0.7,0,N/A,Filled
Human,20,1,1,15,Auditory,TOJ,Adaptive,Duration,0.21,Auditory,0.91,Auditory,0.7,1,N/A,Filled
Human,20,1,1,16,Auditory,TOJ,Adaptive,Duration,0.195,Auditory,0.895,Auditory,0.7,1,N/A,Filled
Human,20,1,1,17,Auditory,TOJ,Adaptive,Duration,0.18,Auditory,0.88,Auditory,0.7,1,N/A,Filled
Human,20,1,1,18,Auditory,TOJ,Adaptive,Duration,0.165,Auditory,0.865,Auditory,0.7,1,N/A,Filled
Human,20,1,1,19,Auditory,TOJ,Adaptive,Duration,0.15,Auditory,0.7,Auditory,0.85,0,N/A,Filled
Human,20,1,1,20,Auditory,TOJ,Adaptive,Duration,0.135,Auditory,0.7,Auditory,0.835,1,N/A,Filled
Human,20,1,1,21,Auditory,TOJ,Adaptive,Duration,0.12,Auditory,0.7,Auditory,0.82,1,N/A,Filled
Human,20,1,1,22,Auditory,TOJ,Adaptive,Duration,0.105,Auditory,0.7,Auditory,0.805,1,N/A,Filled
Human,20,1,1,23,Auditory,TOJ,Adaptive,Duration,0.09,Auditory,0.7,Auditory,0.79,1,N/A,Filled
Human,20,1,1,24,Auditory,TOJ,Adaptive,Duration,0.075,Auditory,0.775,Auditory,0.7,0,N/A,Filled
Human,20,1,1,25,Auditory,TOJ,Adaptive,Duration,0.06,Auditory,0.76,Auditory,0.7,1,N/A,Filled
Human,20,1,1,26,Auditory,TOJ,Adaptive,Duration,0.045,Auditory,0.745,Auditory,0.7,1,N/A,Filled
Human,20,1,1,27,Auditory,TOJ,Adaptive,Duration,0.03,Auditory,0.73,Auditory,0.7,1,N/A,Filled
Human,20,1,1,28,Auditory,TOJ,Adaptive,Duration,0.015,Auditory,0.7,Auditory,0.715,0,N/A,Filled
Human,20,1,1,29,Auditory,TOJ,Adaptive,Duration,0.015,Auditory,0.7,Auditory,0.715,1,N/A,Filled
Human,20,1,1,30,Auditory,TOJ,Adaptive,Duration,0.06,Auditory,0.7,Auditory,0.76,0,N/A,Filled
Human,20,1,1,31,Auditory,TOJ,Adaptive,Duration,0.05,Auditory,0.75,Auditory,0.7,0,N/A,Filled
Human,20,1,1,32,Auditory,TOJ,Adaptive,Duration,0.04,Auditory,0.7,Auditory,0.74,0,N/A,Filled
Human,20,1,1,33,Auditory,TOJ,Adaptive,Duration,0.03,Auditory,0.7,Auditory,0.73,1,N/A,Filled
Human,20,1,1,34,Auditory,TOJ,Adaptive,Duration,0.06,Auditory,0.76,Auditory,0.7,1,N/A,Filled
Human,20,1,1,35,Auditory,TOJ,Adaptive,Duration,0.09,Auditory,0.79,Auditory,0.7,0,N/A,Filled
Human,20,1,1,36,Auditory,TOJ,Adaptive,Duration,0.08,Auditory,0.7,Auditory,0.78,0,N/A,Filled
Human,20,1,1,37,Auditory,TOJ,Adaptive,Duration,0.07,Auditory,0.77,Auditory,0.7,0,N/A,Filled
Human,20,1,1,38,Auditory,TOJ,Adaptive,Duration,0.06,Auditory,0.76,Auditory,0.7,1,N/A,Filled
Human,20,1,1,39,Auditory,TOJ,Adaptive,Duration,0.05,Auditory,0.75,Auditory,0.7,1,N/A,Filled
Human,20,1,1,40,Auditory,TOJ,Adaptive,Duration,0.08,Auditory,0.7,Auditory,0.78,1,N/A,Filled
Human,20,1,1,41,Auditory,TOJ,Adaptive,Duration,0.07,Auditory,0.7,Auditory,0.77,1,N/A,Filled
Human,20,1,1,42,Auditory,TOJ,Adaptive,Duration,0.06,Auditory,0.76,Auditory,0.7,0,N/A,Filled
Human,20,1,1,43,Auditory,TOJ,Adaptive,Duration,0.09,Auditory,0.79,Auditory,0.7,0,N/A,Filled
Human,20,1,1,44,Auditory,TOJ,Adaptive,Duration,0.08,Auditory,0.78,Auditory,0.7,1,N/A,Filled
Human,20,1,1,45,Auditory,TOJ,Adaptive,Duration,0.07,Auditory,0.77,Auditory,0.7,1,N/A,Filled
Human,20,1,1,46,Auditory,TOJ,Adaptive,Duration,0.1,Auditory,0.7,Auditory,0.8,1,N/A,Filled
Human,20,1,1,47,Auditory,TOJ,Adaptive,Duration,0.09,Auditory,0.79,Auditory,0.7,0,N/A,Filled
Human,20,1,1,48,Auditory,TOJ,Adaptive,Duration,0.08,Auditory,0.78,Auditory,0.7,1,N/A,Filled
Human,20,1,1,49,Auditory,TOJ,Adaptive,Duration,0.07,Auditory,0.7,Auditory,0.77,0,N/A,Filled
Human,20,1,1,50,Auditory,TOJ,Adaptive,Duration,0.1,Auditory,0.8,Auditory,0.7,1,N/A,Filled
Human,21,1,1,1,Auditory,TOJ,Adaptive,Duration,0.3,Auditory,1,Auditory,0.7,0,N/A,Filled
Human,21,1,1,2,Auditory,TOJ,Adaptive,Duration,0.285,Auditory,0.985,Auditory,0.7,1,N/A,Filled
Human,21,1,1,3,Auditory,TOJ,Adaptive,Duration,0.27,Auditory,0.7,Auditory,0.97,0,N/A,Filled
Human,21,1,1,4,Auditory,TOJ,Adaptive,Duration,0.255,Auditory,0.955,Auditory,0.7,0,N/A,Filled
Human,21,1,1,5,Auditory,TOJ,Adaptive,Duration,0.24,Auditory,0.7,Auditory,0.94,0,N/A,Filled
Human,21,1,1,6,Auditory,TOJ,Adaptive,Duration,0.225,Auditory,0.925,Auditory,0.7,0,N/A,Filled
Human,21,1,1,7,Auditory,TOJ,Adaptive,Duration,0.21,Auditory,0.91,Auditory,0.7,1,N/A,Filled
Human,21,1,1,8,Auditory,TOJ,Adaptive,Duration,0.195,Auditory,0.7,Auditory,0.895,0,N/A,Filled
Human,21,1,1,9,Auditory,TOJ,Adaptive,Duration,0.18,Auditory,0.88,Auditory,0.7,0,N/A,Filled
Human,21,1,1,10,Auditory,TOJ,Adaptive,Duration,0.165,Auditory,0.7,Auditory,0.865,0,N/A,Filled
Human,21,1,1,11,Auditory,TOJ,Adaptive,Duration,0.21,Auditory,0.7,Auditory,0.91,0,N/A,Filled
Human,21,1,1,12,Auditory,TOJ,Adaptive,Duration,0.195,Auditory,0.895,Auditory,0.7,0,N/A,Filled
Human,21,1,1,13,Auditory,TOJ,Adaptive,Duration,0.18,Auditory,0.88,Auditory,0.7,1,N/A,Filled
Human,21,1,1,14,Auditory,TOJ,Adaptive,Duration,0.165,Auditory,0.865,Auditory,0.7,1,N/A,Filled
Human,21,1,1,15,Auditory,TOJ,Adaptive,Duration,0.15,Auditory,0.7,Auditory,0.85,0,N/A,Filled
Human,21,1,1,16,Auditory,TOJ,Adaptive,Duration,0.135,Auditory,0.7,Auditory,0.835,1,N/A,Filled
Human,21,1,1,17,Auditory,TOJ,Adaptive,Duration,0.12,Auditory,0.7,Auditory,0.82,1,N/A,Filled
Human,21,1,1,18,Auditory,TOJ,Adaptive,Duration,0.105,Auditory,0.7,Auditory,0.805,1,N/A,Filled
Human,21,1,1,19,Auditory,TOJ,Adaptive,Duration,0.09,Auditory,0.79,Auditory,0.7,0,N/A,Filled
Human,21,1,1,20,Auditory,TOJ,Adaptive,Duration,0.075,Auditory,0.7,Auditory,0.775,0,N/A,Filled
Human,21,1,1,21,Auditory,TOJ,Adaptive,Duration,0.06,Auditory,0.76,Auditory,0.7,0,N/A,Filled
Human,21,1,1,22,Auditory,TOJ,Adaptive,Duration,0.045,Auditory,0.745,Auditory,0.7,1,N/A,Filled
Human,21,1,1,23,Auditory,TOJ,Adaptive,Duration,0.03,Auditory,0.73,Auditory,0.7,1,N/A,Filled
Human,21,1,1,24,Auditory,TOJ,Adaptive,Duration,0.015,Auditory,0.7,Auditory,0.715,0,N/A,Filled
Human,21,1,1,25,Auditory,TOJ,Adaptive,Duration,0.015,Auditory,0.715,Auditory,0.7,0,N/A,Filled
Human,21,1,1,26,Auditory,TOJ,Adaptive,Duration,0.015,Auditory,0.7,Auditory,0.715,0,N/A,Filled
Human,21,1,1,27,Auditory,TOJ,Adaptive,Duration,0.015,Auditory,0.715,Auditory,0.7,0,N/A,Filled
Human,21,1,1,28,Auditory,TOJ,Adaptive,Duration,0.015,Auditory,0.7,Auditory,0.715,0,N/A,Filled
Human,21,1,1,29,Auditory,TOJ,Adaptive,Duration,0.06,Auditory,0.76,Auditory,0.7,1,N/A,Filled
Human,21,1,1,30,Auditory,TOJ,Adaptive,Duration,0.105,Auditory,0.805,Auditory,0.7,0,N/A,Filled
Human,21,1,1,31,Auditory,TOJ,Adaptive,Duration,0.095,Auditory,0.7,Auditory,0.795,0,N/A,Filled
Human,21,1,1,32,Auditory,TOJ,Adaptive,Duration,0.085,Auditory,0.785,Auditory,0.7,0,N/A,Filled
Human,21,1,1,33,Auditory,TOJ,Adaptive,Duration,0.075,Auditory,0.7,Auditory,0.775,0,N/A,Filled
Human,21,1,1,34,Auditory,TOJ,Adaptive,Duration,0.065,Auditory,0.765,Auditory,0.7,0,N/A,Filled
Human,21,1,1,35,Auditory,TOJ,Adaptive,Duration,0.055,Auditory,0.755,Auditory,0.7,1,N/A,Filled
Human,21,1,1,36,Auditory,TOJ,Adaptive,Duration,0.085,Auditory,0.785,Auditory,0.7,0,N/A,Filled
Human,21,1,1,37,Auditory,TOJ,Adaptive,Duration,0.075,Auditory,0.7,Auditory,0.775,0,N/A,Filled
Human,21,1,1,38,Auditory,TOJ,Adaptive,Duration,0.105,Auditory,0.7,Auditory,0.805,0,N/A,Filled
Human,21,1,1,39,Auditory,TOJ,Adaptive,Duration,0.095,Auditory,0.795,Auditory,0.7,0,N/A,Filled
Human,21,1,1,40,Auditory,TOJ,Adaptive,Duration,0.085,Auditory,0.7,Auditory,0.785,0,N/A,Filled
Human,21,1,1,41,Auditory,TOJ,Adaptive,Duration,0.075,Auditory,0.7,Auditory,0.775,1,N/A,Filled
Human,21,1,1,42,Auditory,TOJ,Adaptive,Duration,0.065,Auditory,0.7,Auditory,0.765,1,N/A,Filled
Human,21,1,1,43,Auditory,TOJ,Adaptive,Duration,0.055,Auditory,0.7,Auditory,0.755,1,N/A,Filled
Human,21,1,1,44,Auditory,TOJ,Adaptive,Duration,0.045,Auditory,0.745,Auditory,0.7,0,N/A,Filled
Human,21,1,1,45,Auditory,TOJ,Adaptive,Duration,0.035,Auditory,0.735,Auditory,0.7,1,N/A,Filled
Human,21,1,1,46,Auditory,TOJ,Adaptive,Duration,0.025,Auditory,0.725,Auditory,0.7,1,N/A,Filled
Human,21,1,1,47,Auditory,TOJ,Adaptive,Duration,0.055,Auditory,0.7,Auditory,0.755,1,N/A,Filled
Human,21,1,1,48,Auditory,TOJ,Adaptive,Duration,0.085,Auditory,0.785,Auditory,0.7,1,N/A,Filled
Human,21,1,1,49,Auditory,TOJ,Adaptive,Duration,0.075,Auditory,0.775,Auditory,0.7,1,N/A,Filled
Human,21,1,1,50,Auditory,TOJ,Adaptive,Duration,0.065,Auditory,0.7,Auditory,0.765,0,N/A,Filled
Human,22,1,1,1,Auditory,TOJ,Adaptive,Duration,0.3,Auditory,0.7,Auditory,1,0,N/A,Filled
Human,22,1,1,2,Auditory,TOJ,Adaptive,Duration,0.285,Auditory,0.7,Auditory,0.985,1,N/A,Filled
Human,22,1,1,3,Auditory,TOJ,Adaptive,Duration,0.27,Auditory,0.7,Auditory,0.97,1,N/A,Filled
Human,22,1,1,4,Auditory,TOJ,Adaptive,Duration,0.255,Auditory,0.955,Auditory,0.7,0,N/A,Filled
Human,22,1,1,5,Auditory,TOJ,Adaptive,Duration,0.24,Auditory,0.7,Auditory,0.94,0,N/A,Filled
Human,22,1,1,6,Auditory,TOJ,Adaptive,Duration,0.225,Auditory,0.7,Auditory,0.925,1,N/A,Filled
Human,22,1,1,7,Auditory,TOJ,Adaptive,Duration,0.21,Auditory,0.7,Auditory,0.91,1,N/A,Filled
Human,22,1,1,8,Auditory,TOJ,Adaptive,Duration,0.255,Auditory,0.955,Auditory,0.7,1,N/A,Filled
Human,22,1,1,9,Auditory,TOJ,Adaptive,Duration,0.24,Auditory,0.7,Auditory,0.94,0,N/A,Filled
Human,22,1,1,10,Auditory,TOJ,Adaptive,Duration,0.225,Auditory,0.7,Auditory,0.925,1,N/A,Filled
Human,22,1,1,11,Auditory,TOJ,Adaptive,Duration,0.21,Auditory,0.91,Auditory,0.7,0,N/A,Filled
Human,22,1,1,12,Auditory,TOJ,Adaptive,Duration,0.195,Auditory,0.895,Auditory,0.7,1,N/A,Filled
Human,22,1,1,13,Auditory,TOJ,Adaptive,Duration,0.18,Auditory,0.88,Auditory,0.7,1,N/A,Filled
Human,22,1,1,14,Auditory,TOJ,Adaptive,Duration,0.165,Auditory,0.865,Auditory,0.7,1,N/A,Filled
Human,22,1,1,15,Auditory,TOJ,Adaptive,Duration,0.15,Auditory,0.85,Auditory,0.7,1,N/A,Filled
Human,22,1,1,16,Auditory,TOJ,Adaptive,Duration,0.135,Auditory,0.7,Auditory,0.835,0,N/A,Filled
Human,22,1,1,17,Auditory,TOJ,Adaptive,Duration,0.12,Auditory,0.82,Auditory,0.7,0,N/A,Filled
Human,22,1,1,18,Auditory,TOJ,Adaptive,Duration,0.105,Auditory,0.7,Auditory,0.805,0,N/A,Filled
